timestamp,accel_x,accel_y,accel_z,gyro_x,gyro_y,gyro_z,mag_x,mag_y,mag_z
1753271443.0273902,-0.006,-0.021,1.03,-2.67,2.007,-0.366,-514.015,96.775,21.891
1753271443.2036254,-0.005,-0.022,1.035,-2.701,1.923,-0.32,-515.831,96.049,21.891
1753271443.404086,-0.006,-0.021,1.03,-2.693,1.93,-0.198,-512.744,96.957,22.066
1753271443.5306513,-0.006,-0.023,1.028,-2.808,1.884,-0.252,-513.289,95.686,21.19
1753271443.6541169,-0.007,-0.021,1.024,-2.739,1.984,-0.305,-512.563,94.596,21.54
1753271443.7853374,-0.007,-0.021,1.034,-2.67,1.961,-0.244,-512.926,93.87,21.891
1753271443.9079957,-0.005,-0.02,1.029,-2.731,1.907,-0.351,-512.381,98.046,20.314
1753271444.0348685,-0.006,-0.019,1.031,-2.708,1.945,-0.32,-515.105,99.317,21.54
1753271444.1597476,-0.008,-0.02,1.031,-2.785,1.961,-0.29,-512.926,96.412,22.241
1753271444.2825572,-0.006,-0.019,1.029,-2.731,1.9,-0.359,-511.837,97.864,21.19
1753271444.4057474,-0.005,-0.021,1.028,-2.693,1.915,-0.29,-515.286,97.32,22.416
1753271444.5286498,-0.007,-0.02,1.031,-2.754,1.884,-0.351,-514.56,97.32,19.614
1753271444.6526742,-0.004,-0.021,1.032,-2.647,1.953,-0.298,-513.289,97.501,19.789
1753271444.7696748,-0.005,-0.021,1.033,-2.785,1.991,-0.305,-515.468,95.686,22.591
1753271444.8869581,-0.005,-0.02,1.032,-2.686,1.968,-0.229,-512.926,98.954,21.54
1753271445.0052764,-0.004,-0.021,1.029,-2.678,1.915,-0.351,-512.744,96.593,22.066
1753271445.1233528,-0.007,-0.022,1.026,-2.762,1.907,-0.282,-514.56,94.778,20.314
1753271445.242761,-0.006,-0.023,1.031,-2.777,1.961,-0.328,-513.652,94.596,20.139
1753271445.3615775,-0.004,-0.02,1.03,-2.693,1.877,-0.259,-513.834,94.052,19.264
1753271445.4804943,-0.006,-0.02,1.03,-2.678,1.945,-0.328,-511.292,95.141,19.614
1753271445.6004562,-0.005,-0.02,1.033,-2.8,1.93,-0.29,-512.018,97.683,22.766
1753271445.7208707,-0.005,-0.022,1.032,-2.678,2.052,-0.244,-513.471,95.867,19.614
1753271445.8492866,-0.006,-0.021,1.027,-2.686,1.869,-0.305,-514.015,94.959,22.241
1753271445.9783318,-0.006,-0.019,1.031,-2.716,1.984,-0.259,-516.194,93.87,22.241
1753271446.09943,-0.004,-0.019,1.033,-2.663,1.968,-0.229,-513.289,96.412,20.84
1753271446.224502,-0.005,-0.021,1.031,-2.762,1.984,-0.282,-512.381,94.778,21.365
1753271446.3480012,-0.006,-0.022,1.032,-2.678,1.915,-0.366,-512.381,96.957,20.314
1753271446.4722946,-0.004,-0.021,1.032,-2.64,1.9,-0.305,-513.471,97.32,19.264
1753271446.5944118,-0.006,-0.021,1.031,-2.777,1.953,-0.343,-512.563,97.138,22.591
1753271446.720133,-0.006,-0.021,1.028,-2.716,1.915,-0.298,-513.834,97.32,21.015
1753271446.8438225,-0.007,-0.019,1.033,-2.686,1.938,-0.328,-511.655,98.046,21.715
1753271446.9647613,-0.006,-0.02,1.03,-2.686,1.968,-0.259,-514.015,96.049,19.789
1753271447.0933967,-0.004,-0.02,1.028,-2.663,1.991,-0.298,-512.563,95.686,19.789
1753271447.2206106,-0.005,-0.022,1.031,-2.754,1.915,-0.298,-514.56,95.504,24.167
1753271447.346524,-0.003,-0.02,1.03,-2.686,1.961,-0.275,-514.015,97.138,20.49
1753271447.4755738,-0.004,-0.022,1.031,-2.762,1.945,-0.328,-513.289,98.228,22.241
1753271447.5947866,-0.006,-0.022,1.033,-2.67,1.93,-0.32,-513.471,96.23,21.365
1753271447.714274,-0.007,-0.024,1.032,-2.708,1.945,-0.359,-512.926,97.138,20.49
1753271447.8338919,-0.006,-0.022,1.03,-2.785,2.014,-0.305,-513.834,96.957,22.416
1753271447.9529278,-0.005,-0.02,1.031,-2.747,1.999,-0.305,-512.563,97.864,20.84
1753271448.07549,-0.006,-0.022,1.032,-2.724,1.991,-0.32,-514.742,96.412,21.19
1753271448.19799,-0.005,-0.023,1.036,-2.708,1.984,-0.298,-515.649,96.593,21.365
1753271448.320776,-0.005,-0.02,1.034,-2.686,1.961,-0.267,-513.652,92.781,20.84
1753271448.4427722,-0.006,-0.02,1.032,-2.754,1.984,-0.275,-514.197,96.957,22.416
1753271448.5645092,-0.006,-0.021,1.032,-2.686,1.945,-0.244,-513.471,95.504,19.264
1753271448.687193,-0.004,-0.018,1.03,-2.678,1.938,-0.305,-512.563,96.412,20.84
1753271448.8083231,-0.006,-0.021,1.027,-2.724,2.022,-0.282,-512.381,95.141,23.116
1753271448.9308581,-0.007,-0.021,1.031,-2.663,1.884,-0.336,-512.926,95.686,20.84
1753271449.0515976,-0.004,-0.022,1.031,-2.655,1.884,-0.244,0,0,0
1753271449.1703498,-0.006,-0.021,1.028,-2.777,1.907,-0.359,-515.105,96.412,22.941
1753271449.2923021,-0.006,-0.019,1.033,-2.67,1.945,-0.336,-512.018,95.504,21.015
1753271449.4156005,-0.004,-0.021,1.026,-2.754,1.961,-0.298,-512.926,96.775,21.54
1753271449.5385334,-0.006,-0.019,1.029,-2.747,1.938,-0.282,-514.56,94.778,21.015
1753271449.662771,-0.005,-0.019,1.026,-2.716,1.999,-0.32,-512.926,96.775,21.54
1753271449.7861447,-0.004,-0.022,1.03,-2.686,1.862,-0.259,-513.652,97.864,20.49
1753271449.9085531,-0.004,-0.02,1.03,-2.754,1.907,-0.336,-514.378,95.686,20.49
1753271450.03084,-0.006,-0.022,1.03,-2.876,1.984,-0.305,-512.926,99.317,22.241
1753271450.1534736,-0.003,-0.023,1.035,-2.663,2.029,-0.298,-513.652,95.323,20.49
1753271450.2758863,-0.006,-0.022,1.031,-2.754,2.037,-0.282,-511.655,95.504,18.913
1753271450.3984656,-0.005,-0.021,1.029,-2.731,2.014,-0.198,-514.378,95.686,20.139
1753271450.5220785,-0.005,-0.022,1.033,-2.731,1.93,-0.221,-514.015,97.864,20.84
1753271450.645451,-0.005,-0.022,1.029,-2.731,1.976,-0.313,-512.563,96.775,21.19
1753271450.7694173,-0.003,-0.02,1.028,-2.747,1.915,-0.328,-514.197,95.867,18.913
1753271450.8936567,-0.005,-0.019,1.027,-2.739,1.976,-0.336,-514.015,94.596,21.891
1753271451.0177705,-0.005,-0.022,1.033,-2.739,1.938,-0.313,-514.015,97.501,21.54
1753271451.1413522,-0.003,-0.021,1.028,-2.747,2.022,-0.336,-513.652,96.049,20.49
1753271451.2661302,-0.005,-0.021,1.032,-2.686,1.945,-0.32,-512.2,95.686,19.789
1753271451.388984,-0.006,-0.021,1.029,-2.785,1.999,-0.275,-513.471,95.504,18.913
1753271451.5136752,-0.004,-0.02,1.028,-2.686,1.892,-0.275,-513.289,97.864,22.591
1753271451.6382205,-0.007,-0.022,1.029,-2.701,1.961,-0.313,-513.834,95.504,20.665
1753271451.7641876,-0.008,-0.022,1.03,-2.686,1.991,-0.259,-510.929,95.141,21.015
1753271451.8900614,-0.006,-0.021,1.027,-2.701,1.968,-0.427,-512.744,97.683,21.365
1753271452.015969,-0.005,-0.02,1.029,-2.708,2.083,-0.282,-512.381,97.32,19.964
1753271452.1425745,-0.005,-0.022,1.03,-2.686,1.976,-0.298,-513.107,96.23,23.116
1753271452.269355,-0.005,-0.02,1.03,-2.678,1.808,-0.359,-513.652,96.775,22.241
1753271452.395767,-0.007,-0.02,1.033,-2.739,1.953,-0.313,-512.563,96.049,20.49
1753271452.5218585,-0.004,-0.02,1.031,-2.708,1.961,-0.298,-513.471,98.409,22.766
1753271452.6484668,-0.004,-0.02,1.033,-2.747,1.892,-0.359,-513.652,97.864,21.891
1753271452.7748039,-0.004,-0.021,1.031,-2.808,1.945,-0.359,-512.018,96.957,21.015
1753271452.903535,-0.006,-0.02,1.029,-2.678,1.968,-0.305,-516.194,97.501,23.642
1753271453.0352259,-0.005,-0.021,1.031,-2.792,1.884,-0.359,-514.197,96.23,20.314
1753271453.1598175,-0.005,-0.021,1.03,-2.663,1.976,-0.298,-512.926,96.775,20.49
1753271453.2841413,-0.005,-0.02,1.031,-2.716,1.907,-0.244,-514.378,93.507,23.642
1753271453.4074373,-0.007,-0.022,1.029,-2.708,1.938,-0.32,-515.468,98.954,21.891
1753271453.5294833,-0.006,-0.02,1.028,-2.701,1.968,-0.298,-514.197,95.504,21.365
1753271453.6521153,-0.007,-0.022,1.029,-2.708,1.93,-0.397,-513.471,96.957,18.913
1753271453.7722342,-0.003,-0.022,1.029,-2.686,1.869,-0.366,-512.926,96.412,22.241
1753271453.9024222,-0.005,-0.021,1.028,-2.823,1.93,-0.221,-514.378,96.775,21.891
1753271454.0184326,-0.006,-0.02,1.028,-2.731,1.915,-0.244,-513.471,95.867,21.365
1753271454.1445484,-0.006,-0.02,1.031,-2.724,1.968,-0.267,-512.744,98.409,21.365
1753271454.2664857,-0.006,-0.021,1.032,-2.739,1.892,-0.282,-512.381,98.409,21.715
1753271454.38349,-0.007,-0.019,1.032,-2.8,1.862,-0.336,-515.468,99.317,21.891
1753271454.502403,-0.005,-0.022,1.029,-2.747,1.839,-0.305,-513.289,95.686,20.84
1753271454.6887002,-0.006,-0.019,1.03,-2.731,1.945,-0.45,-514.015,94.959,21.54
1753271454.895062,-0.007,-0.021,1.028,-2.686,1.968,-0.305,-515.649,95.867,19.964
1753271455.0393515,-0.003,-0.022,1.033,-2.762,1.877,-0.351,-516.376,95.867,19.964
1753271455.1585932,-0.006,-0.021,1.033,-2.762,1.808,-0.32,-513.107,96.593,21.365
1753271455.2811115,-0.006,-0.022,1.029,-2.785,2.045,-0.259,-511.473,98.228,25.043
1753271455.4008403,-0.005,-0.021,1.029,-2.754,1.968,-0.328,-514.015,96.049,20.49
1753271455.519889,-0.004,-0.021,1.032,-2.678,1.892,-0.244,-512.2,94.959,22.591
1753271455.6403487,-0.006,-0.022,1.03,-2.708,1.991,-0.328,-514.015,96.775,22.241
1753271455.7599833,-0.004,-0.023,1.032,-2.823,1.9,-0.328,-512.744,96.957,21.715
1753271455.8798833,-0.005,-0.021,1.03,-2.708,1.923,-0.259,-514.923,96.593,21.015
1753271455.9995966,-0.004,-0.02,1.029,-2.724,1.968,-0.198,-513.652,97.501,22.591
1753271456.1189306,-0.004,-0.02,1.03,-2.693,2.014,-0.42,-513.652,98.591,21.891
1753271456.2401397,-0.007,-0.021,1.033,-2.769,1.938,-0.313,-512.2,97.864,20.84
1753271456.358752,-0.006,-0.02,1.028,-2.716,1.961,-0.351,-514.56,97.32,21.715
1753271456.4783268,-0.007,-0.021,1.026,-2.785,2.014,-0.282,-513.652,95.686,19.439
1753271456.5979419,-0.006,-0.021,1.029,-2.708,1.984,-0.305,-514.56,94.778,20.665
1753271456.7165382,-0.006,-0.022,1.033,-2.716,1.984,-0.32,-515.649,96.593,20.314
1753271456.8376112,-0.006,-0.021,1.03,-2.754,1.923,-0.336,-513.834,96.957,20.314
1753271456.9594986,-0.005,-0.022,1.033,-2.861,1.923,-0.282,-513.471,95.867,21.715
1753271457.0810778,-0.004,-0.02,1.03,-2.686,1.953,-0.359,-512.2,96.412,21.54
1753271457.2034843,-0.006,-0.021,1.036,-2.678,1.961,-0.336,-514.197,96.23,22.066
1753271457.3254733,-0.005,-0.02,1.029,-2.686,1.984,-0.336,-512.926,96.775,22.591
1753271457.4475663,-0.005,-0.02,1.036,-2.808,1.938,-0.359,-513.652,98.954,21.891
1753271457.5688446,-0.004,-0.019,1.034,-2.625,1.976,-0.336,-513.107,96.957,21.715
1753271457.6902673,-0.003,-0.021,1.032,-2.739,1.945,-0.336,-513.834,95.867,19.964
1753271457.8114595,-0.005,-0.02,1.03,-2.701,1.9,-0.305,0,0,0
1753271457.9324086,-0.005,-0.022,1.025,-2.686,1.93,-0.32,-512.018,94.778,21.365
1753271458.0536315,-0.005,-0.021,1.032,-2.754,2.045,-0.32,-513.107,96.593,19.964
1753271458.17394,-0.004,-0.021,1.031,-2.731,1.839,-0.267,-512.2,96.049,21.19
1753271458.2934825,-0.007,-0.02,1.029,-2.769,1.884,-0.427,-515.468,97.501,21.19
1753271458.4136674,-0.006,-0.023,1.033,-2.769,1.968,-0.298,-514.378,97.501,22.941
1753271458.5334866,-0.006,-0.021,1.028,-2.716,1.892,-0.328,-512.018,95.504,19.964
1753271458.6534576,-0.006,-0.02,1.029,-2.655,1.976,-0.32,-513.471,97.32,22.066
1753271458.7741432,-0.006,-0.021,1.031,-2.716,1.968,-0.244,-514.378,96.775,21.19
1753271458.8940208,-0.005,-0.02,1.033,-2.716,1.923,-0.336,-514.923,96.23,21.365
1753271459.0149078,-0.004,-0.022,1.03,-2.724,1.854,-0.298,-515.105,96.775,19.439
1753271459.1366644,-0.006,-0.019,1.03,-2.701,1.923,-0.298,-512.563,97.138,20.84
1753271459.2584941,-0.006,-0.022,1.03,-2.724,1.892,-0.343,-514.742,97.501,22.941
1753271459.3802848,-0.005,-0.02,1.031,-2.701,1.938,-0.381,-513.652,95.686,20.84
1753271459.5030189,-0.005,-0.022,1.033,-2.693,1.953,-0.282,-516.194,96.775,19.089
1753271459.6245928,-0.007,-0.021,1.032,-2.708,1.869,-0.389,-514.742,97.501,22.591
1753271459.7461557,-0.005,-0.02,1.03,-2.724,1.991,-0.336,-514.197,96.23,21.365
1753271459.86823,-0.005,-0.023,1.032,-2.708,1.984,-0.244,-513.107,97.32,22.416
1753271459.9892528,-0.007,-0.021,1.03,-2.724,1.923,-0.244,-514.378,97.864,21.54
1753271460.111341,-0.006,-0.018,1.028,-2.747,2.014,-0.305,-512.744,96.593,22.766
1753271460.2366261,-0.005,-0.022,1.032,-2.647,1.862,-0.267,-512.926,96.049,20.84
1753271460.359086,-0.005,-0.021,1.032,-2.67,2.014,-0.305,-514.015,96.049,23.291
1753271460.4814065,-0.006,-0.019,1.028,-2.853,1.984,-0.282,-512.744,96.957,22.766
1753271460.6017597,-0.005,-0.022,1.028,-2.731,1.968,-0.282,-514.197,98.046,21.715
1753271460.7234037,-0.004,-0.02,1.027,-2.67,1.854,-0.351,-512.2,98.591,20.84
1753271460.8436723,-0.006,-0.019,1.032,-2.792,1.999,-0.244,-513.289,95.686,21.891
1753271460.96427,-0.005,-0.023,1.031,-2.693,1.923,-0.237,-514.197,97.32,19.264
1753271461.0844548,-0.005,-0.021,1.033,-2.724,1.9,-0.389,-511.837,97.501,20.49
1753271461.205294,-0.005,-0.019,1.033,-2.724,2.007,-0.32,-512.2,96.412,21.19
1753271461.3257494,-0.005,-0.021,1.029,-2.739,1.938,-0.32,-513.471,96.23,23.467
1753271461.4464107,-0.007,-0.019,1.031,-2.632,1.991,-0.359,-511.837,96.412,21.19
1753271461.5680842,-0.005,-0.022,1.031,-2.739,1.976,-0.298,-515.468,96.412,21.891
1753271461.6901255,-0.008,-0.021,1.028,-2.724,1.938,-0.404,0,0,0
1753271461.8110487,-0.008,-0.021,1.029,-2.754,1.953,-0.313,-514.015,95.686,20.49
1753271461.9346292,-0.004,-0.019,1.029,-2.67,1.938,-0.275,-514.923,98.409,21.015
1753271462.056567,-0.005,-0.022,1.029,-2.701,1.892,-0.343,-514.56,98.409,22.766
1753271462.1796408,-0.005,-0.021,1.029,-2.67,1.915,-0.381,-512.563,96.049,22.241
1753271462.3017483,-0.005,-0.022,1.032,-2.701,1.976,-0.343,-512.744,95.867,21.365
1753271462.4246154,-0.006,-0.021,1.029,-2.8,1.961,-0.32,-514.378,97.501,20.84
1753271462.5469527,-0.007,-0.018,1.028,-2.632,1.938,-0.275,-512.926,97.138,22.941
1753271462.6691241,-0.006,-0.019,1.029,-2.678,1.991,-0.244,-514.923,94.778,21.015
1753271462.7915466,-0.005,-0.021,1.027,-2.64,1.907,-0.298,-513.289,95.323,22.591
1753271462.912486,-0.006,-0.021,1.028,-2.678,1.953,-0.374,-513.107,95.141,21.365
1753271463.0335252,-0.006,-0.02,1.033,-2.739,1.93,-0.298,-511.837,96.412,22.241
1753271463.1539233,-0.005,-0.021,1.033,-2.815,2.007,-0.351,-514.56,95.867,23.116
1753271463.2744803,-0.005,-0.021,1.031,-2.708,2.029,-0.313,-515.286,95.141,22.066
1753271463.394545,-0.006,-0.02,1.029,-2.693,1.945,-0.282,-510.384,96.049,21.891
1753271463.5145988,-0.006,-0.02,1.029,-2.625,1.923,-0.359,-513.471,95.504,18.913
1753271463.634616,-0.005,-0.023,1.031,-2.739,1.961,-0.282,-513.289,96.775,23.291
1753271463.7562187,-0.005,-0.02,1.03,-2.724,1.991,-0.298,-514.378,96.775,21.19
1753271463.8756685,-0.004,-0.02,1.029,-2.754,1.945,-0.298,-512.926,96.412,19.089
1753271463.9965634,-0.005,-0.02,1.035,-2.67,1.961,-0.374,-513.107,97.32,21.715
1753271464.118395,-0.006,-0.019,1.029,-2.693,1.892,-0.267,-512.2,97.501,21.891
1753271464.2409298,-0.006,-0.02,1.031,-2.686,1.9,-0.275,-512.2,97.138,21.19
1753271464.3631604,-0.006,-0.021,1.029,-2.663,1.938,-0.328,-514.197,96.23,22.066
1753271464.4860015,-0.007,-0.021,1.034,-2.777,1.915,-0.305,-511.292,95.867,21.715
1753271464.6082401,-0.005,-0.021,1.029,-2.777,2.014,-0.305,-514.56,97.683,22.766
1753271464.731975,-0.004,-0.02,1.033,-2.67,1.945,-0.366,-513.289,96.412,19.789
1753271464.8544486,-0.005,-0.02,1.03,-2.716,1.976,-0.351,-512.744,95.141,22.416
1753271464.9769826,-0.006,-0.021,1.033,-2.708,1.976,-0.328,-513.289,96.049,20.139
1753271465.0990243,-0.007,-0.019,1.033,-2.731,1.831,-0.32,-514.742,96.049,22.241
1753271465.2212849,-0.005,-0.02,1.033,-2.632,1.9,-0.282,-513.652,97.138,21.54
1753271465.343398,-0.005,-0.022,1.028,-2.724,1.984,-0.336,-513.471,96.957,20.665
1753271465.46417,-0.005,-0.021,1.033,-2.731,1.968,-0.252,-512.563,97.864,21.54
1753271465.5849254,-0.007,-0.021,1.03,-2.708,1.93,-0.343,-513.834,93.325,21.715
1753271465.7063441,-0.004,-0.021,1.035,-2.754,1.999,-0.282,-511.11,97.138,21.891
1753271465.8269143,-0.006,-0.021,1.031,-2.739,1.991,-0.259,-514.015,96.049,20.49
1753271465.9488149,-0.007,-0.022,1.031,-2.716,1.968,-0.328,-513.471,96.957,22.766
1753271466.0693657,-0.006,-0.021,1.03,-2.67,1.915,-0.32,0,0,0
1753271466.1889343,-0.005,-0.019,1.032,-2.739,1.892,-0.328,-513.652,97.864,22.591
1753271466.3098543,-0.006,-0.021,1.028,-2.678,1.892,-0.298,-512.563,97.138,21.54
1753271466.4311123,-0.004,-0.021,1.03,-2.762,1.999,-0.252,-514.015,97.501,22.241
1753271466.5529964,-0.006,-0.019,1.032,-2.716,1.945,-0.298,-514.197,95.504,20.314
1753271466.6775486,-0.008,-0.02,1.03,-2.632,1.984,-0.305,-512.018,96.593,22.766
1753271466.799333,-0.006,-0.021,1.032,-2.754,1.93,-0.328,-513.652,97.501,22.241
1753271466.9213474,-0.004,-0.022,1.034,-2.693,1.907,-0.32,-512.926,96.775,21.54
1753271467.0439653,-0.008,-0.02,1.031,-2.777,1.923,-0.32,-514.197,95.504,20.665
1753271467.166576,-0.005,-0.023,1.033,-2.701,1.961,-0.343,-513.652,96.412,21.891
1753271467.2888813,-0.005,-0.019,1.03,-2.655,1.968,-0.298,-510.929,95.504,19.264
1753271467.4115953,-0.005,-0.021,1.028,-2.762,2.075,-0.351,-512.926,98.591,20.49
1753271467.5342805,-0.006,-0.022,1.032,-2.716,2.045,-0.252,-513.471,97.683,22.416
1753271467.6564999,-0.006,-0.022,1.03,-2.701,1.938,-0.412,-514.197,95.867,21.365
1753271467.7787209,-0.007,-0.022,1.032,-2.708,2.007,-0.29,-514.378,95.686,22.941
1753271467.898935,-0.006,-0.021,1.03,-2.777,1.915,-0.305,-514.378,94.959,21.19
1753271468.0189838,-0.007,-0.021,1.029,-2.754,1.968,-0.267,-512.018,97.32,20.665
1753271468.1395838,-0.007,-0.022,1.031,-2.701,1.892,-0.359,-512.381,97.32,23.116
1753271468.2604458,-0.004,-0.022,1.028,-2.686,2.007,-0.275,-512.744,97.32,21.365
1753271468.3813672,-0.004,-0.02,1.03,-2.739,1.923,-0.32,-513.289,96.049,20.49
1753271468.502861,-0.006,-0.023,1.03,-2.64,2.007,-0.275,-514.378,97.501,21.19
1753271468.6233995,-0.005,-0.021,1.033,-2.678,1.999,-0.359,-514.56,96.593,19.614
1753271468.7453144,-0.005,-0.021,1.029,-2.792,1.884,-0.374,-513.289,96.412,21.54
1753271468.86678,-0.007,-0.021,1.032,-2.823,1.984,-0.366,-514.56,98.046,20.314
1753271468.9891207,-0.007,-0.019,1.03,-2.785,1.869,-0.305,-512.744,94.778,20.665
1753271469.1123579,-0.005,-0.018,1.028,-2.815,1.923,-0.336,-512.563,94.959,20.49
1753271469.2359169,-0.004,-0.019,1.03,-2.747,1.907,-0.305,-513.107,94.778,22.416
1753271469.4234126,-0.006,-0.023,1.027,-2.762,1.991,-0.305,-513.834,96.23,18.913
1753271469.546377,-0.007,-0.022,1.029,-2.754,1.923,-0.313,-513.834,94.778,21.015
1753271469.670279,-0.006,-0.023,1.031,-2.686,1.976,-0.275,-513.289,95.323,22.591
1753271469.835988,-0.004,-0.02,1.032,-2.708,1.877,-0.298,-512.2,97.864,23.291
1753271469.9718244,-0.005,-0.022,1.034,-2.823,1.976,-0.343,-512.926,96.049,20.49
1753271470.0911689,-0.004,-0.023,1.036,-2.701,1.915,-0.305,-514.56,95.867,19.614
1753271470.2105613,-0.006,-0.02,1.031,-2.724,1.961,-0.336,-514.378,96.412,21.54
1753271470.3284178,-0.007,-0.021,1.028,-2.739,1.984,-0.389,-513.107,96.957,20.665
1753271470.4435601,-0.007,-0.021,1.028,-2.762,1.945,-0.275,0,0,0
1753271470.5592413,-0.004,-0.02,1.03,-2.663,1.938,-0.389,-512.381,95.141,19.264
1753271470.6757908,-0.007,-0.02,1.03,-2.67,1.999,-0.336,-517.102,96.593,22.766
1753271470.7921174,-0.006,-0.021,1.025,-2.777,1.93,-0.351,-515.468,96.775,21.54
1753271470.9081554,-0.005,-0.022,1.035,-2.678,1.968,-0.328,-514.378,97.501,22.241
1753271471.0245385,-0.005,-0.02,1.028,-2.731,1.953,-0.305,-513.834,98.409,21.715
1753271471.1402729,-0.005,-0.022,1.031,-2.747,1.953,-0.267,-515.649,94.778,21.015
1753271471.3822994,-0.005,-0.019,1.032,-2.785,1.923,-0.32,-514.742,96.049,18.038
1753271471.5067708,-0.004,-0.02,1.03,-2.686,1.93,-0.214,-511.473,95.686,21.54
1753271471.6486464,-0.007,-0.02,1.03,-2.647,1.907,-0.313,-513.652,96.775,21.54
1753271471.8094347,-0.006,-0.02,1.032,-2.663,1.938,-0.298,-512.744,99.499,21.015
1753271471.9911563,-0.005,-0.02,1.031,-2.739,1.991,-0.267,-511.655,98.409,20.665
1753271472.1603692,-0.005,-0.022,1.027,-2.739,1.953,-0.168,-515.105,97.138,20.84
1753271472.3652751,-0.005,-0.021,1.03,-2.739,1.923,-0.298,-512.563,96.412,21.19
1753271472.5827656,-0.006,-0.021,1.033,-2.716,1.907,-0.282,-516.557,96.412,19.789
1753271472.7138617,-0.004,-0.021,1.031,-2.754,1.976,-0.328,-513.652,96.412,20.49
1753271472.8418875,-0.006,-0.019,1.032,-2.647,1.915,-0.267,-512.563,96.412,21.891
1753271472.9622128,-0.007,-0.02,1.029,-2.754,2.037,-0.282,-512.744,95.867,20.665
1753271473.086234,-0.006,-0.022,1.028,-2.792,1.892,-0.298,-512.2,95.686,23.291
1753271473.203593,-0.005,-0.023,1.029,-2.716,1.999,-0.298,0,0,0
1753271473.3214786,-0.007,-0.02,1.026,-2.724,2.014,-0.336,-515.286,96.593,23.116
1753271473.4407086,-0.007,-0.021,1.03,-2.731,1.9,-0.328,-512.381,97.32,22.066
1753271473.5961514,-0.005,-0.021,1.034,-2.724,1.816,-0.328,-512.926,96.049,22.941
1753271473.7657375,-0.006,-0.019,1.029,-2.708,1.968,-0.381,-514.015,95.686,21.891
1753271473.8858428,-0.007,-0.019,1.03,-2.686,1.869,-0.313,-512.2,96.049,22.241
1753271474.0026703,-0.006,-0.021,1.032,-2.708,1.968,-0.32,-514.197,96.23,21.365
1753271474.1252904,-0.006,-0.019,1.026,-2.731,1.968,-0.404,-513.107,97.32,22.066
1753271474.2434578,-0.007,-0.022,1.031,-2.754,1.923,-0.305,-513.652,96.412,20.84
1753271474.3639352,-0.007,-0.021,1.03,-2.754,1.976,-0.29,-512.744,94.415,20.665
1753271474.4920194,-0.005,-0.021,1.031,-2.747,2.037,-0.313,-513.834,96.593,22.416
1753271474.6121309,-0.006,-0.02,1.034,-2.808,1.923,-0.298,-514.197,96.593,19.614
1753271474.732312,-0.006,-0.022,1.028,-2.769,1.869,-0.313,-514.015,94.959,19.089
1753271474.8510666,-0.006,-0.021,1.032,-2.769,1.915,-0.298,-512.744,96.23,21.715
1753271474.9705355,-0.006,-0.021,1.036,-2.731,1.9,-0.298,-514.197,97.683,20.665
1753271475.0901997,-0.005,-0.022,1.033,-2.716,1.907,-0.298,-514.56,98.409,21.365
1753271475.2100668,-0.005,-0.021,1.032,-2.769,1.938,-0.343,-511.473,97.864,19.789
1753271475.3289824,-0.006,-0.02,1.032,-2.724,1.991,-0.275,0,0,0
1753271475.44664,-0.005,-0.021,1.033,-2.724,1.892,-0.359,-512.744,96.957,19.964
1753271475.5652206,-0.004,-0.022,1.028,-2.647,1.915,-0.252,-512.744,98.409,20.314
1753271475.6893373,-0.006,-0.021,1.031,-2.663,2.022,-0.374,-514.197,96.957,21.715
1753271475.8528993,-0.006,-0.021,1.034,-2.785,1.907,-0.374,-514.56,93.688,21.015
1753271476.001107,-0.006,-0.02,1.029,-2.693,1.991,-0.343,-512.018,96.593,22.066
1753271476.1584468,-0.004,-0.022,1.033,-2.739,1.93,-0.298,-514.742,97.138,23.291
1753271476.317699,-0.006,-0.02,1.028,-2.754,1.907,-0.374,-512.2,95.686,22.591
1753271476.4479122,-0.005,-0.022,1.031,-2.792,1.869,-0.305,-512.018,96.957,21.715
1753271476.5659728,-0.003,-0.021,1.031,-2.777,1.961,-0.336,-511.473,94.959,21.54
1753271476.683449,-0.005,-0.02,1.03,-2.678,2.022,-0.252,-514.378,99.317,19.439
1753271476.8033552,-0.005,-0.021,1.031,-2.594,1.953,-0.366,-511.292,97.32,21.715
1753271476.9232638,-0.006,-0.022,1.03,-2.747,1.923,-0.298,-513.107,98.046,20.314
1753271477.046232,-0.006,-0.021,1.03,-2.739,1.862,-0.366,-511.11,97.864,21.891
1753271477.1743214,-0.006,-0.021,1.029,-2.716,1.961,-0.32,-513.289,97.864,19.789
1753271477.2990952,-0.007,-0.021,1.03,-2.701,1.976,-0.313,-513.107,95.141,21.365
1753271477.4315054,-0.005,-0.021,1.03,-2.724,1.923,-0.282,-510.384,99.68,22.591
1753271477.5834706,-0.004,-0.02,1.03,-2.739,1.968,-0.298,-513.652,96.775,20.49
1753271477.731154,-0.004,-0.021,1.032,-2.769,1.846,-0.427,-514.923,96.23,20.314
1753271477.850312,-0.004,-0.02,1.034,-2.701,1.953,-0.336,-513.652,98.954,20.49
1753271477.9700985,-0.005,-0.02,1.033,-2.739,2.014,-0.313,-514.378,97.138,21.19
1753271478.091623,-0.005,-0.02,1.032,-2.716,1.976,-0.336,-512.926,95.323,22.591
1753271478.2134693,-0.008,-0.021,1.031,-2.647,1.877,-0.328,-512.926,94.959,21.891
1753271478.3336034,-0.007,-0.021,1.028,-2.67,1.854,-0.397,0,0,0
1753271478.4538603,-0.005,-0.021,1.029,-2.716,1.923,-0.244,-514.378,96.049,22.241
1753271478.5786018,-0.007,-0.021,1.029,-2.716,2.007,-0.359,-513.107,99.135,21.715
1753271478.7111216,-0.005,-0.021,1.03,-2.731,2.007,-0.221,-512.744,95.141,21.715
1753271478.833711,-0.003,-0.02,1.029,-2.655,1.915,-0.32,0,0,0
1753271478.9535913,-0.006,-0.021,1.029,-2.686,1.892,-0.366,-512.744,95.867,21.015
1753271479.0725803,-0.006,-0.022,1.03,-2.708,1.999,-0.313,-513.289,96.049,20.49
1753271479.1916032,-0.008,-0.023,1.034,-2.647,1.938,-0.328,-513.289,93.87,21.54
1753271479.4667325,-0.006,-0.021,1.029,-2.747,1.907,-0.343,-514.56,97.683,21.015
1753271479.583324,-0.004,-0.022,1.027,-2.754,1.953,-0.298,0,0,0
1753271479.7016149,-0.005,-0.022,1.033,-2.701,1.953,-0.229,-513.652,97.501,23.291
1753271479.827229,-0.005,-0.019,1.031,-2.8,1.984,-0.336,-511.655,94.778,21.365
1753271479.9465976,-0.005,-0.02,1.032,-2.686,1.854,-0.267,-512.563,97.138,19.789
1753271480.0664883,-0.005,-0.022,1.027,-2.647,1.945,-0.29,-514.378,95.323,20.49
1753271480.1861458,-0.005,-0.021,1.028,-2.724,1.984,-0.275,-509.476,95.141,21.015
1753271480.3070219,-0.004,-0.022,1.031,-2.739,1.869,-0.328,-515.286,96.23,19.964
1753271480.4289782,-0.005,-0.021,1.029,-2.8,1.945,-0.351,-513.471,96.957,21.715
1753271480.5529056,-0.007,-0.02,1.033,-2.762,1.862,-0.298,-512.744,96.23,22.416
1753271480.6734223,-0.005,-0.021,1.026,-2.769,1.991,-0.29,-513.471,96.23,22.416
1753271480.8324645,-0.006,-0.02,1.03,-2.708,1.862,-0.32,-511.11,97.501,21.19
1753271480.9507134,-0.007,-0.019,1.024,-2.769,1.999,-0.343,-513.834,96.23,23.116
1753271481.070134,-0.005,-0.019,1.029,-2.731,1.945,-0.275,-511.837,94.233,20.84
1753271481.1955872,-0.005,-0.022,1.028,-2.724,1.915,-0.298,-511.473,97.138,21.891
1753271481.3263507,-0.005,-0.021,1.032,-2.716,1.93,-0.305,-513.289,97.138,21.891
1753271481.4548438,-0.005,-0.022,1.027,-2.64,1.884,-0.244,-511.292,97.683,19.614
1753271481.5799894,-0.006,-0.019,1.027,-2.701,1.968,-0.267,-514.56,98.046,21.015
1753271481.702168,-0.008,-0.02,1.031,-2.785,1.915,-0.343,-513.652,98.591,22.591
1753271481.8236628,-0.006,-0.022,1.027,-2.708,1.938,-0.282,-511.473,96.412,19.089
1753271481.9454687,-0.004,-0.02,1.029,-2.724,1.961,-0.397,-514.923,97.683,22.066
1753271482.0650613,-0.006,-0.021,1.03,-2.724,1.991,-0.313,-512.018,93.688,19.964
1753271482.1872623,-0.005,-0.022,1.03,-2.731,2.029,-0.275,-513.289,96.412,22.241
1753271482.3106802,-0.006,-0.02,1.03,-2.663,1.953,-0.381,-510.384,98.591,20.49
1753271482.4347534,-0.006,-0.023,1.032,-2.686,1.892,-0.298,-514.015,97.138,19.789
1753271482.5612938,-0.005,-0.02,1.031,-2.815,1.9,-0.29,-510.929,98.046,21.715
1753271482.687538,-0.006,-0.02,1.031,-2.663,1.884,-0.351,-514.56,98.046,22.766
1753271482.8113549,-0.007,-0.02,1.03,-2.647,2.029,-0.198,-512.018,94.415,21.365
1753271482.9356403,-0.006,-0.021,1.029,-2.792,1.976,-0.32,-513.289,96.775,21.19
1753271483.0600846,-0.006,-0.02,1.03,-2.716,1.9,-0.244,-512.2,98.591,20.139
1753271483.1849947,-0.005,-0.021,1.029,-2.678,1.907,-0.282,-512.926,94.596,21.19
1753271483.3191032,-0.005,-0.02,1.03,-2.708,1.93,-0.366,-512.563,96.775,19.439
1753271483.4509892,-0.007,-0.02,1.029,-2.724,1.984,-0.267,-512.926,96.412,22.241
1753271483.5715337,-0.006,-0.019,1.026,-2.754,1.945,-0.305,-514.378,95.686,21.54
1753271483.6920035,-0.005,-0.021,1.027,-2.724,1.923,-0.343,-510.566,98.046,22.766
1753271483.8114824,-0.004,-0.021,1.032,-2.769,1.831,-0.298,-512.563,96.775,20.84
1753271483.931236,-0.006,-0.02,1.033,-2.716,1.907,-0.275,-513.289,96.412,23.642
1753271484.0491443,-0.006,-0.021,1.028,-2.739,1.976,-0.298,-511.655,94.778,20.665
1753271484.1674128,-0.004,-0.019,1.031,-2.769,1.923,-0.259,-513.289,97.864,21.891
1753271484.3021598,-0.005,-0.018,1.031,-2.762,1.846,-0.381,-514.197,97.683,22.766
1753271484.4244952,-0.005,-0.023,1.03,-2.693,1.991,-0.343,-515.468,94.959,21.54
1753271484.543121,-0.007,-0.021,1.029,-2.67,1.945,-0.366,-512.2,98.228,20.139
1753271484.6595333,-0.006,-0.019,1.032,-2.67,1.968,-0.397,-512.744,96.957,20.314
1753271484.7884781,-0.005,-0.021,1.029,-2.693,1.915,-0.229,-512.563,97.501,20.49
1753271484.9041352,-0.006,-0.023,1.031,-2.731,1.961,-0.267,-513.107,99.499,20.665
1753271485.0205839,-0.004,-0.018,1.031,-2.647,1.862,-0.336,-512.563,97.501,21.891
1753271485.13951,-0.006,-0.021,1.03,-2.655,1.999,-0.359,-514.56,94.778,23.116
1753271485.2575376,-0.005,-0.02,1.03,-2.792,1.984,-0.32,-513.471,96.23,20.665
1753271485.3728516,-0.005,-0.02,1.03,-2.731,1.938,-0.343,-514.197,98.409,20.665
1753271485.4943268,-0.005,-0.019,1.03,-2.686,1.953,-0.214,-512.744,97.32,21.015
1753271485.6333358,-0.006,-0.02,1.028,-2.701,2.052,-0.244,-513.289,100.77,22.591
1753271485.7627897,-0.005,-0.02,1.03,-2.777,1.968,-0.259,-512.926,96.049,21.19
1753271485.8820984,-0.007,-0.021,1.029,-2.785,1.961,-0.366,-513.289,94.959,21.19
1753271486.0015311,-0.005,-0.021,1.029,-2.67,1.93,-0.305,-512.563,96.049,22.241
1753271486.121008,-0.005,-0.02,1.03,-2.739,1.953,-0.252,-512.381,95.504,22.416
1753271486.240768,-0.005,-0.02,1.031,-2.708,1.862,-0.328,-514.378,95.686,19.789
1753271486.3598123,-0.004,-0.02,1.033,-2.67,1.892,-0.244,-513.652,96.049,19.439
1753271486.4799297,-0.005,-0.022,1.034,-2.632,2.045,-0.252,-513.652,96.412,21.891
1753271486.6089346,-0.006,-0.021,1.031,-2.647,1.938,-0.336,-514.197,96.23,21.365
1753271486.7412431,-0.006,-0.02,1.031,-2.808,2.007,-0.32,-512.926,96.049,21.54
1753271486.8966286,-0.005,-0.02,1.029,-2.693,1.938,-0.29,-515.649,95.141,19.964
1753271487.0336385,-0.006,-0.021,1.031,-2.716,1.938,-0.336,-513.107,96.957,21.365
1753271487.1655564,-0.005,-0.021,1.029,-2.747,1.93,-0.259,-514.015,97.864,18.038
1753271487.2823868,-0.007,-0.021,1.032,-2.686,1.976,-0.343,-514.378,96.412,20.84
1753271487.399987,-0.007,-0.021,1.03,-2.716,1.869,-0.374,-514.015,95.323,20.84
1753271487.5162253,-0.006,-0.022,1.025,-2.724,1.907,-0.328,-514.015,96.775,23.642
1753271487.6337187,-0.005,-0.02,1.033,-2.754,1.915,-0.298,-512.744,95.504,19.264
1753271487.7533247,-0.005,-0.019,1.03,-2.708,1.9,-0.29,-513.834,96.957,19.264
1753271487.8728156,-0.007,-0.021,1.03,-2.67,1.999,-0.237,-513.471,96.957,19.964
1753271487.9934356,-0.005,-0.022,1.029,-2.731,1.884,-0.32,-514.923,96.23,20.314
1753271488.1137898,-0.006,-0.02,1.034,-2.678,1.862,-0.305,-515.286,96.957,20.314
1753271488.2356124,-0.005,-0.019,1.033,-2.716,1.884,-0.336,-514.742,96.412,20.139
1753271488.3551235,-0.005,-0.022,1.031,-2.701,1.953,-0.328,-513.289,97.864,21.891
1753271488.4711232,-0.007,-0.02,1.029,-2.823,1.953,-0.336,-514.197,99.135,21.365
1753271488.5886774,-0.006,-0.019,1.031,-2.663,1.854,-0.343,0,0,0
1753271488.705214,-0.005,-0.021,1.026,-2.693,2.007,-0.282,-512.2,96.412,22.591
1753271488.823138,-0.004,-0.021,1.034,-2.747,1.961,-0.282,-513.652,96.775,21.54
1753271488.9380887,-0.006,-0.022,1.029,-2.701,1.961,-0.305,-513.834,96.23,23.467
1753271489.053681,-0.004,-0.02,1.033,-2.678,1.968,-0.229,-514.56,96.593,21.015
1753271489.1693232,-0.006,-0.021,1.03,-2.708,1.915,-0.32,-513.471,95.504,20.665
1753271489.285266,-0.007,-0.02,1.03,-2.724,2.022,-0.313,-513.834,95.867,21.015
1753271489.4019792,-0.004,-0.02,1.029,-2.678,1.945,-0.32,-512.744,94.415,21.715
1753271489.519015,-0.004,-0.02,1.03,-2.777,1.961,-0.305,-513.834,95.504,19.964
1753271489.6361034,-0.005,-0.02,1.031,-2.8,1.907,-0.343,-512.018,95.141,22.416
1753271489.7534947,-0.005,-0.02,1.032,-2.724,1.953,-0.237,-514.56,96.23,20.314
1753271489.8696475,-0.006,-0.021,1.032,-2.769,1.907,-0.298,-513.471,96.23,21.365
1753271489.9858806,-0.005,-0.022,1.031,-2.754,1.953,-0.389,-514.015,97.864,21.54
1753271490.1017063,-0.004,-0.019,1.034,-2.693,1.93,-0.336,-513.107,95.141,19.264
1753271490.2183452,-0.006,-0.023,1.028,-2.693,1.923,-0.275,0,0,0
1753271490.334953,-0.005,-0.02,1.027,-2.708,1.907,-0.282,-515.286,97.683,21.365
1753271490.4531138,-0.004,-0.021,1.029,-2.708,1.877,-0.359,-512.744,97.683,20.314
1753271490.5707908,-0.004,-0.022,1.03,-2.716,1.953,-0.381,-514.015,95.686,22.241
1753271490.686483,-0.006,-0.019,1.028,-2.762,1.854,-0.381,-514.197,94.415,22.066
1753271490.8028011,-0.005,-0.021,1.027,-2.731,1.869,-0.336,-513.289,95.323,20.49
1753271490.9180822,-0.006,-0.021,1.027,-2.731,1.945,-0.359,-514.742,94.959,21.891
1753271491.031984,-0.004,-0.02,1.031,-2.693,1.892,-0.259,-511.655,96.957,22.416
1753271491.1470225,-0.004,-0.019,1.031,-2.724,1.961,-0.206,-512.926,96.049,20.139
1753271491.2620738,-0.006,-0.02,1.029,-2.67,1.984,-0.305,-513.834,96.23,22.416
1753271491.376581,-0.007,-0.02,1.027,-2.754,1.877,-0.282,-512.926,95.323,21.19
1753271491.4911177,-0.006,-0.022,1.03,-2.731,1.93,-0.32,-511.292,95.141,20.665
1753271491.6061757,-0.007,-0.02,1.032,-2.769,1.923,-0.32,-513.652,96.775,19.439
1753271491.7223024,-0.007,-0.021,1.029,-2.739,1.938,-0.343,-512.926,94.596,20.84
1753271491.8385432,-0.005,-0.02,1.033,-2.708,1.953,-0.381,0,0,0
1753271491.9534607,-0.006,-0.022,1.028,-2.731,1.93,-0.305,-514.742,97.138,21.54
1753271492.0743544,-0.009,-0.021,1.028,-2.64,1.953,-0.305,-513.652,96.775,19.789
1753271492.1914117,-0.007,-0.021,1.031,-2.693,2.045,-0.328,-510.021,96.049,18.388
1753271492.3076715,-0.005,-0.02,1.03,-2.693,2.014,-0.267,-512.2,96.412,21.891
1753271492.4292805,-0.006,-0.018,1.031,-2.686,1.999,-0.313,-515.286,98.409,23.116
1753271492.5447705,-0.004,-0.02,1.031,-2.724,1.984,-0.298,-514.378,94.596,21.19
1753271492.6634266,-0.006,-0.02,1.03,-2.747,1.915,-0.275,-514.378,95.686,22.241
1753271492.7821348,-0.004,-0.022,1.03,-2.64,1.877,-0.214,-514.197,96.957,22.066
1753271492.8985434,-0.005,-0.021,1.03,-2.739,1.938,-0.305,-514.56,94.778,18.563
1753271493.0150821,-0.005,-0.02,1.03,-2.777,1.991,-0.237,-516.013,96.593,22.066
1753271493.1314924,-0.006,-0.02,1.031,-2.731,1.953,-0.359,-512.926,95.323,20.84
1753271493.2866,-0.006,-0.023,1.034,-2.831,1.915,-0.244,-513.471,96.593,20.314
1753271493.420414,-0.004,-0.021,1.034,-2.777,1.915,-0.29,-512.563,96.412,21.891
1753271493.5386353,-0.007,-0.019,1.032,-2.693,1.884,-0.313,-516.557,97.864,22.241
1753271493.6554747,-0.006,-0.02,1.029,-2.724,1.945,-0.351,-511.655,97.683,21.015
1753271493.7699945,-0.004,-0.02,1.03,-2.701,2.029,-0.359,-513.652,96.775,19.789
1753271493.8938928,-0.006,-0.022,1.034,-2.762,1.9,-0.359,-513.107,95.504,22.766
1753271494.0126925,-0.005,-0.02,1.031,-2.64,1.793,-0.313,-511.292,97.32,22.766
1753271494.1291323,-0.005,-0.02,1.031,-2.747,1.938,-0.313,-512.926,97.864,20.139
1753271494.2644315,-0.006,-0.019,1.033,-2.716,1.93,-0.313,-512.2,96.412,22.591
1753271494.3859181,-0.006,-0.02,1.031,-2.754,1.984,-0.32,-514.923,99.135,21.715
1753271494.5107539,-0.006,-0.021,1.031,-2.739,1.991,-0.32,-514.197,96.957,23.817
1753271494.6343455,-0.006,-0.019,1.031,-2.686,1.907,-0.32,-514.742,96.049,20.139
1753271494.7601376,-0.006,-0.021,1.03,-2.762,1.945,-0.359,-513.652,97.138,20.84
1753271494.882221,-0.006,-0.021,1.03,-2.716,1.9,-0.328,-513.289,99.317,20.84
1753271495.0455217,-0.008,-0.022,1.029,-2.701,1.938,-0.336,-514.923,97.683,20.665
1753271495.2058136,-0.006,-0.022,1.031,-2.739,1.961,-0.359,-514.742,97.501,23.642
1753271495.3270297,-0.007,-0.018,1.031,-2.701,1.984,-0.282,-514.197,93.688,19.964
1753271495.4449785,-0.007,-0.02,1.031,-2.678,1.877,-0.237,-515.286,94.778,21.365
1753271495.5652544,-0.006,-0.021,1.029,-2.747,1.93,-0.32,-514.197,97.683,21.365
1753271495.6852024,-0.005,-0.021,1.03,-2.647,1.93,-0.381,-512.2,96.049,20.84
1753271495.8054159,-0.006,-0.021,1.034,-2.708,1.961,-0.328,-514.378,97.138,20.49
1753271495.9244196,-0.008,-0.021,1.032,-2.731,1.938,-0.328,-513.652,96.049,20.139
1753271496.046295,-0.006,-0.02,1.031,-2.708,1.892,-0.305,-515.468,96.412,21.19
1753271496.169995,-0.006,-0.019,1.03,-2.762,1.862,-0.298,-512.381,97.32,19.964
1753271496.2948449,-0.005,-0.02,1.029,-2.678,1.938,-0.298,-511.837,96.775,22.591
1753271496.414217,-0.006,-0.019,1.027,-2.724,1.991,-0.42,-512.018,94.052,21.015
1753271496.5336423,-0.006,-0.022,1.027,-2.708,2.06,-0.298,-513.289,94.959,19.439
1753271496.6549878,-0.006,-0.022,1.03,-2.739,1.984,-0.366,-513.471,94.052,20.314
1753271496.7756326,-0.007,-0.017,1.03,-2.724,1.991,-0.305,-510.747,95.323,22.591
1753271496.895678,-0.006,-0.02,1.027,-2.686,2.007,-0.397,-512.2,95.323,21.54
1753271497.016303,-0.006,-0.02,1.033,-2.686,1.884,-0.252,-513.652,97.501,21.54
1753271497.1361423,-0.005,-0.02,1.03,-2.716,1.945,-0.305,-513.289,96.775,21.891
1753271497.2843485,-0.006,-0.021,1.032,-2.747,1.915,-0.32,-512.926,96.049,22.591
1753271497.463624,-0.005,-0.021,1.03,-2.701,1.877,-0.328,-513.652,100.77,20.84
1753271497.653658,-0.005,-0.02,1.03,-2.785,1.961,-0.29,-512.381,95.867,19.614
1753271497.7826836,-0.005,-0.018,1.031,-2.762,1.968,-0.267,-513.107,95.504,22.766
1753271497.908996,-0.005,-0.019,1.03,-2.792,1.915,-0.305,-513.471,97.32,21.365
1753271498.035239,-0.005,-0.02,1.033,-2.724,1.945,-0.275,-512.926,96.049,20.84
1753271498.2337105,-0.005,-0.022,1.033,-2.739,1.961,-0.32,-515.468,97.501,21.19
1753271498.4388304,-0.004,-0.019,1.03,-2.693,1.923,-0.198,-511.655,96.23,22.066
1753271498.5706735,-0.005,-0.019,1.026,-2.853,1.968,-0.32,-510.929,98.046,21.715
1753271498.6915104,-0.008,-0.02,1.029,-2.8,1.991,-0.275,-512.2,94.959,21.19
1753271498.8191855,-0.005,-0.022,1.03,-2.655,1.915,-0.389,-513.652,99.317,21.891
1753271498.9368877,-0.006,-0.021,1.028,-2.693,1.953,-0.343,-513.289,96.775,21.54
1753271499.0560238,-0.007,-0.02,1.027,-2.632,1.93,-0.374,-513.652,97.501,21.54
1753271499.1830585,-0.007,-0.022,1.03,-2.708,1.93,-0.305,-513.107,96.23,20.314
1753271499.2992175,-0.006,-0.02,1.027,-2.693,1.945,-0.328,-512.018,96.593,21.365
1753271499.416314,-0.006,-0.019,1.027,-2.762,1.915,-0.259,-514.378,94.233,22.241
1753271499.535336,-0.006,-0.021,1.032,-2.815,1.953,-0.313,-512.926,94.596,18.388
1753271499.6551654,-0.006,-0.022,1.03,-2.655,1.953,-0.328,-513.471,96.593,21.015
1753271499.7775905,-0.007,-0.02,1.03,-2.693,1.968,-0.351,-510.384,95.686,21.54
1753271499.9046578,-0.005,-0.021,1.03,-2.663,1.938,-0.237,-513.289,94.596,20.139
1753271500.047251,-0.005,-0.021,1.028,-2.724,1.991,-0.343,-514.742,95.686,19.439
1753271500.2209885,-0.007,-0.021,1.03,-2.762,1.877,-0.336,-513.289,94.596,21.19
1753271500.3734043,-0.006,-0.019,1.034,-2.792,2.014,-0.267,-513.471,98.409,21.715
1753271500.5449388,-0.008,-0.02,1.034,-2.632,1.938,-0.343,-512.381,97.32,21.715
1753271500.6649516,-0.006,-0.022,1.029,-2.716,1.999,-0.252,-512.563,97.864,22.241
1753271500.7854989,-0.004,-0.019,1.032,-2.838,1.93,-0.351,-513.471,97.32,22.416
1753271500.9071984,-0.005,-0.021,1.03,-2.739,1.884,-0.259,-512.381,95.867,21.015
1753271501.0285802,-0.008,-0.02,1.033,-2.716,2.037,-0.305,-510.747,96.775,21.54
1753271501.1551504,-0.007,-0.021,1.031,-2.67,1.961,-0.32,-514.015,98.591,20.84
1753271501.2780075,-0.004,-0.021,1.031,-2.792,2.014,-0.359,-514.56,96.957,21.715
1753271501.4562767,-0.005,-0.021,1.032,-2.754,1.869,-0.305,-514.015,97.501,19.089
1753271501.5775387,-0.006,-0.02,1.031,-2.792,1.915,-0.282,-512.018,94.052,19.964
1753271501.712245,-0.005,-0.02,1.03,-2.815,1.877,-0.336,-515.831,95.323,20.84
1753271501.8262882,-0.006,-0.019,1.031,-2.693,1.938,-0.244,-515.831,96.775,19.789
1753271501.943303,-0.005,-0.019,1.028,-2.731,1.915,-0.214,-512.563,97.138,21.19
1753271502.0813158,-0.007,-0.02,1.03,-2.686,1.968,-0.29,-514.378,95.323,21.19
1753271502.208854,-0.004,-0.019,1.031,-2.67,1.953,-0.282,-514.378,96.775,21.19
1753271502.337702,-0.006,-0.022,1.03,-2.693,1.976,-0.259,-512.744,95.504,21.715
1753271502.457894,-0.006,-0.02,1.027,-2.769,1.945,-0.237,-516.013,96.957,21.015
1753271502.5796323,-0.006,-0.021,1.028,-2.785,1.976,-0.298,-514.197,98.772,22.416
1753271502.6988878,-0.008,-0.02,1.031,-2.693,1.93,-0.32,-514.197,95.141,19.614
1753271502.8191304,-0.006,-0.02,1.025,-2.731,1.907,-0.305,-514.742,97.138,21.54
1753271502.937778,-0.006,-0.021,1.028,-2.693,2.014,-0.313,-513.107,96.957,21.015
1753271503.057002,-0.005,-0.018,1.028,-2.678,1.968,-0.313,-514.56,95.504,21.015
1753271503.1923044,-0.007,-0.021,1.032,-2.747,1.938,-0.351,-515.831,97.138,20.49
1753271503.3260827,-0.006,-0.021,1.029,-2.754,1.961,-0.244,-512.381,96.593,21.015
1753271503.485137,-0.006,-0.021,1.031,-2.701,1.984,-0.351,-513.107,93.688,20.665
1753271503.6233459,-0.005,-0.022,1.032,-2.731,1.9,-0.275,-513.471,97.32,23.467
1753271503.7364902,-0.007,-0.021,1.03,-2.716,1.915,-0.282,-514.742,97.501,20.84
1753271503.8514376,-0.006,-0.02,1.031,-2.708,1.984,-0.229,0,0,0
1753271503.9662108,-0.006,-0.019,1.025,-2.701,1.968,-0.282,-514.197,96.957,22.066
1753271504.0824857,-0.005,-0.021,1.029,-2.754,1.93,-0.275,-512.2,97.501,21.54
1753271504.1992815,-0.007,-0.022,1.031,-2.731,1.945,-0.298,-517.647,97.864,19.789
1753271504.314804,-0.006,-0.021,1.03,-2.731,1.869,-0.29,-514.56,94.778,22.416
1753271504.4301326,-0.005,-0.02,1.031,-2.716,2.029,-0.244,-515.649,98.046,21.715
1753271504.5454729,-0.005,-0.021,1.03,-2.808,1.938,-0.298,-511.473,96.412,20.49
1753271504.66392,-0.007,-0.019,1.025,-2.769,2.029,-0.336,-513.107,94.778,23.467
1753271504.781394,-0.006,-0.019,1.029,-2.777,1.961,-0.298,-513.289,97.138,21.19
1753271504.8977864,-0.007,-0.02,1.031,-2.647,1.915,-0.275,-513.289,96.775,21.891
1753271505.0149033,-0.007,-0.021,1.03,-2.716,1.976,-0.298,-512.563,98.228,21.891
1753271505.132268,-0.005,-0.02,1.03,-2.625,1.984,-0.313,-513.834,96.593,22.066
1753271505.2500818,-0.004,-0.021,1.032,-2.663,1.999,-0.237,-512.381,97.32,21.715
1753271505.3669212,-0.006,-0.02,1.033,-2.678,1.846,-0.244,-513.107,96.23,21.365
1753271505.4824948,-0.006,-0.019,1.028,-2.678,1.976,-0.381,-512.2,94.596,20.139
1753271505.5985293,-0.003,-0.019,1.027,-2.754,1.999,-0.32,0,0,0
1753271505.7131336,-0.005,-0.02,1.027,-2.647,1.991,-0.313,-511.837,95.323,21.54
1753271505.8282046,-0.004,-0.02,1.031,-2.739,1.877,-0.359,-513.289,98.954,21.19
1753271505.9416456,-0.007,-0.02,1.029,-2.693,1.923,-0.381,-514.923,95.504,19.964
1753271506.0557027,-0.005,-0.022,1.032,-2.686,1.999,-0.313,-514.378,96.775,21.54
1753271506.169729,-0.006,-0.021,1.033,-2.823,1.892,-0.328,-513.289,96.049,20.49
1753271506.2843568,-0.006,-0.021,1.031,-2.678,2.052,-0.381,-517.102,95.867,23.467
1753271506.3986502,-0.006,-0.02,1.028,-2.701,1.968,-0.32,-513.107,96.23,21.715
1753271506.5123975,-0.007,-0.019,1.032,-2.853,1.999,-0.29,-513.471,94.778,21.715
1753271506.6296978,-0.006,-0.019,1.032,-2.762,1.93,-0.275,-513.834,96.957,19.964
1753271506.743496,-0.005,-0.02,1.031,-2.754,2.007,-0.305,-511.837,97.138,21.891
1753271506.8570259,-0.005,-0.02,1.027,-2.815,1.976,-0.267,0,0,0
1753271506.972065,-0.006,-0.021,1.029,-2.769,1.869,-0.305,-513.289,94.596,20.139
1753271507.0869672,-0.006,-0.02,1.029,-2.701,1.892,-0.343,-512.926,97.138,20.49
1753271507.2025604,-0.005,-0.021,1.03,-2.716,1.938,-0.282,-512.381,95.504,20.314
1753271507.3179033,-0.005,-0.021,1.03,-2.647,1.961,-0.366,-511.837,97.501,21.891
1753271507.4342074,-0.006,-0.019,1.029,-2.777,1.854,-0.282,-514.742,99.317,19.439
1753271507.5502613,-0.007,-0.02,1.032,-2.678,1.984,-0.259,-514.197,96.593,21.365
1753271507.6667974,-0.006,-0.018,1.028,-2.777,1.923,-0.282,-514.015,96.049,22.241
1753271507.7851036,-0.006,-0.02,1.031,-2.777,1.953,-0.282,-512.926,98.228,21.19
1753271507.9097683,-0.004,-0.019,1.03,-2.716,2.022,-0.305,-512.2,94.959,20.139
1753271508.0254025,-0.004,-0.019,1.029,-2.701,1.976,-0.282,-512.563,95.323,19.789
1753271508.144437,-0.005,-0.021,1.029,-2.747,1.846,-0.244,-514.742,95.323,22.941
1753271508.25857,-0.005,-0.02,1.032,-2.808,1.976,-0.359,-512.381,96.23,22.066
1753271508.3746793,-0.006,-0.021,1.029,-2.701,1.93,-0.366,-514.015,94.233,21.891
1753271508.4891222,-0.005,-0.02,1.031,-2.678,1.968,-0.298,-512.381,95.141,22.066
1753271508.6359582,-0.005,-0.023,1.029,-2.716,1.862,-0.29,-514.015,98.228,21.54
1753271508.7705321,-0.006,-0.021,1.028,-2.769,1.93,-0.244,-514.015,97.138,21.19
1753271508.8937342,-0.004,-0.022,1.028,-2.678,1.961,-0.275,-512.926,94.233,21.54
1753271509.0134184,-0.005,-0.022,1.032,-2.693,1.923,-0.366,-514.197,96.23,23.116
1753271509.140486,-0.007,-0.02,1.03,-2.762,1.961,-0.32,-513.289,97.138,22.241
1753271509.3019683,-0.004,-0.021,1.028,-2.632,1.984,-0.32,-514.378,96.049,20.139
1753271509.4538,-0.003,-0.02,1.034,-2.716,1.938,-0.397,-516.194,97.864,22.941
1753271509.5873747,-0.007,-0.019,1.029,-2.678,1.9,-0.282,-512.926,97.864,21.891
1753271509.7313142,-0.005,-0.021,1.03,-2.67,1.953,-0.237,-514.923,96.23,22.766
1753271509.8481464,-0.006,-0.02,1.03,-2.747,1.976,-0.282,-513.289,97.138,22.591
1753271509.9661896,-0.006,-0.019,1.03,-2.693,2.029,-0.298,-513.471,94.415,21.015
1753271510.094327,-0.005,-0.021,1.031,-2.716,1.953,-0.313,-515.831,95.323,20.49
1753271510.2292004,-0.006,-0.02,1.032,-2.731,2.052,-0.343,-514.197,96.593,22.416
1753271510.3529,-0.008,-0.021,1.027,-2.747,1.999,-0.252,-513.289,98.591,21.19
1753271510.5302284,-0.004,-0.021,1.031,-2.693,1.93,-0.32,-516.013,96.593,20.665
1753271510.6555235,-0.005,-0.021,1.029,-2.647,2.014,-0.275,-515.649,95.504,20.314
1753271510.8468065,-0.005,-0.02,1.026,-2.716,1.892,-0.305,-511.837,96.775,21.19
1753271510.9813824,-0.006,-0.02,1.029,-2.769,1.93,-0.343,-514.197,95.867,22.066
1753271511.171295,-0.006,-0.02,1.029,-2.831,1.991,-0.298,-511.837,97.138,19.789
1753271511.3052332,-0.003,-0.02,1.034,-2.708,1.938,-0.275,-513.471,98.772,19.964
1753271511.4397392,-0.006,-0.019,1.03,-2.785,1.839,-0.32,-514.56,98.046,21.715
1753271511.56463,-0.004,-0.02,1.031,-2.708,1.884,-0.305,-514.197,95.141,22.416
1753271511.7618494,-0.005,-0.02,1.032,-2.64,1.991,-0.328,-513.471,96.593,22.066
1753271511.9626842,-0.002,-0.022,1.028,-2.739,1.976,-0.389,-515.831,94.233,21.891
1753271512.0789704,-0.006,-0.018,1.029,-2.762,1.991,-0.298,-512.926,96.049,20.49
1753271512.1982722,-0.005,-0.019,1.025,-2.724,1.961,-0.359,-513.652,94.596,23.291
1753271512.3618934,-0.004,-0.021,1.028,-2.708,1.884,-0.381,-510.929,96.23,20.665
1753271512.4840484,-0.004,-0.02,1.031,-2.731,2.106,-0.275,0,0,0
1753271512.6077046,-0.005,-0.019,1.028,-2.632,1.93,-0.29,-515.286,96.593,22.416
1753271512.7447217,-0.005,-0.02,1.032,-2.701,1.976,-0.191,-516.194,95.323,20.49
1753271512.9305813,-0.005,-0.021,1.031,-2.693,1.953,-0.237,-514.56,95.504,22.066
1753271513.0590456,-0.005,-0.02,1.03,-2.762,1.938,-0.298,-514.56,95.141,21.365
1753271513.24044,-0.006,-0.02,1.03,-2.739,1.9,-0.282,-511.837,95.686,20.84
1753271513.3607035,-0.005,-0.02,1.032,-2.747,1.953,-0.313,0,0,0
1753271513.4833393,-0.006,-0.019,1.029,-2.663,1.93,-0.336,-515.105,96.049,18.738
1753271513.604745,-0.005,-0.019,1.031,-2.823,1.923,-0.267,-515.286,96.957,21.365
1753271513.7347503,-0.008,-0.019,1.029,-2.739,1.93,-0.252,-511.655,98.772,21.715
1753271513.885286,-0.006,-0.022,1.032,-2.747,1.999,-0.275,-514.56,96.957,22.066
1753271514.0098293,-0.005,-0.019,1.03,-2.747,1.961,-0.305,-513.107,96.957,22.416
1753271514.1994133,-0.005,-0.021,1.033,-2.686,1.984,-0.381,-512.926,97.138,21.19
1753271514.322005,-0.006,-0.022,1.034,-2.701,2.022,-0.298,-513.107,95.504,23.116
1753271514.4418075,-0.007,-0.021,1.031,-2.724,1.976,-0.298,-510.747,97.138,22.591
1753271514.5645819,-0.006,-0.022,1.029,-2.716,1.923,-0.259,-513.652,97.138,20.84
1753271514.6890674,-0.007,-0.021,1.031,-2.716,1.945,-0.244,-513.289,94.959,20.49
1753271514.8093624,-0.004,-0.021,1.032,-2.701,2.007,-0.267,-512.381,95.867,22.766
1753271514.9341404,-0.006,-0.022,1.031,-2.716,1.945,-0.313,-511.837,96.412,22.241
1753271515.05694,-0.006,-0.02,1.032,-2.701,1.938,-0.29,-514.378,97.501,21.19
1753271515.1815038,-0.005,-0.02,1.032,-2.716,1.968,-0.29,-513.834,95.867,22.066
1753271515.3459141,-0.006,-0.02,1.029,-2.716,1.923,-0.374,-515.105,97.138,20.49
1753271515.4783542,-0.005,-0.019,1.03,-2.625,1.923,-0.252,-515.286,96.957,21.015
1753271515.604488,-0.006,-0.021,1.029,-2.754,1.938,-0.298,-513.834,98.046,20.665
1753271515.7399838,-0.007,-0.02,1.03,-2.731,1.938,-0.275,-515.105,97.864,22.591
1753271515.8790493,-0.005,-0.022,1.032,-2.754,1.968,-0.244,-513.652,95.686,21.891
1753271515.9981308,-0.005,-0.023,1.033,-2.785,1.945,-0.366,-512.744,96.957,19.964
1753271516.1148348,-0.005,-0.021,1.026,-2.754,1.961,-0.29,-511.655,101.677,22.066
1753271516.2382734,-0.006,-0.022,1.031,-2.716,1.892,-0.252,0,0,0
1753271516.3568125,-0.006,-0.019,1.032,-2.701,1.915,-0.214,-511.292,96.957,20.665
1753271516.4732883,-0.005,-0.021,1.029,-2.708,1.846,-0.328,-516.013,96.593,21.715
1753271516.5900555,-0.008,-0.021,1.029,-2.701,1.991,-0.237,-514.742,96.775,22.591
1753271516.7183025,-0.006,-0.02,1.028,-2.701,1.945,-0.343,-514.015,96.412,19.789
1753271516.8515275,-0.007,-0.021,1.028,-2.693,1.976,-0.336,-513.471,97.32,19.964
1753271517.0129426,-0.007,-0.021,1.031,-2.701,1.938,-0.282,-513.289,94.596,20.49
1753271517.1578112,-0.006,-0.021,1.035,-2.739,1.923,-0.282,-512.018,95.141,20.665
1753271517.2860284,-0.007,-0.02,1.028,-2.693,1.9,-0.29,-513.652,97.864,22.241
1753271517.4006534,-0.005,-0.023,1.031,-2.785,1.915,-0.29,-514.378,97.501,17.688
1753271517.515091,-0.004,-0.019,1.032,-2.731,1.823,-0.328,-512.018,94.415,19.264
1753271517.6308844,-0.005,-0.021,1.028,-2.754,2.014,-0.275,-510.747,98.228,19.439
1753271517.7455256,-0.007,-0.019,1.028,-2.754,1.938,-0.29,-510.929,97.683,21.365
1753271517.8593507,-0.005,-0.02,1.028,-2.777,1.968,-0.298,0,0,0
1753271517.9753754,-0.005,-0.022,1.029,-2.754,1.923,-0.313,-508.75,95.867,20.665
1753271518.094022,-0.006,-0.021,1.028,-2.686,1.961,-0.366,-512.018,92.599,21.715
1753271518.2121758,-0.006,-0.02,1.031,-2.785,2.052,-0.359,-511.11,95.686,22.241
1753271518.327958,-0.007,-0.02,1.032,-2.716,1.976,-0.359,-513.652,100.043,22.241
1753271518.4436245,-0.006,-0.02,1.029,-2.769,1.93,-0.275,-514.742,94.959,23.291
1753271518.5617661,-0.005,-0.021,1.029,-2.754,1.93,-0.29,-514.742,97.864,20.49
1753271518.676957,-0.005,-0.019,1.031,-2.731,1.9,-0.221,-510.747,95.686,21.891
1753271518.791441,-0.006,-0.021,1.029,-2.647,1.961,-0.366,-509.658,95.323,19.439
1753271518.9066007,-0.005,-0.02,1.027,-2.747,1.93,-0.374,-511.837,97.864,23.642
1753271519.0212555,-0.006,-0.022,1.03,-2.647,1.968,-0.275,-515.105,96.775,23.992
1753271519.1771224,-0.006,-0.022,1.035,-2.701,1.991,-0.351,-509.295,95.323,21.891
1753271519.3228798,-0.007,-0.02,1.027,-2.647,1.892,-0.29,-516.194,98.228,20.84
1753271519.4578938,-0.006,-0.02,1.033,-2.716,1.915,-0.267,-512.744,98.046,21.015
1753271519.5834155,-0.006,-0.02,1.031,-2.747,1.938,-0.343,-511.655,100.225,21.015
1753271519.7031438,-0.007,-0.02,1.028,-2.609,1.953,-0.298,-514.923,98.046,19.614
1753271519.8374305,-0.008,-0.021,1.032,-2.747,2.014,-0.267,-511.837,92.417,23.291
1753271520.020113,-0.005,-0.021,1.032,-2.747,2.045,-0.259,-514.56,95.504,22.416
1753271520.1381373,-0.006,-0.02,1.032,-2.762,1.953,-0.366,-513.471,94.778,21.715
1753271520.2652311,-0.006,-0.02,1.033,-2.716,1.961,-0.267,-515.286,94.778,23.817
1753271520.3825657,-0.005,-0.022,1.032,-2.792,1.93,-0.343,-510.566,95.141,25.568
1753271520.4997907,-0.004,-0.02,1.035,-2.678,1.945,-0.305,-507.66,96.957,21.365
1753271520.6200356,-0.004,-0.02,1.031,-2.609,1.953,-0.336,-510.566,96.957,20.665
1753271520.7401695,-0.004,-0.021,1.027,-2.747,1.953,-0.305,0,0,0
1753271520.857424,-0.008,-0.021,1.025,-2.823,2.014,-0.298,-514.015,97.138,22.241
1753271520.975019,-0.006,-0.02,1.031,-2.701,1.968,-0.374,-511.837,96.412,21.19
1753271521.0940654,-0.005,-0.024,1.027,-2.831,1.991,-0.443,-509.295,98.591,21.19
1753271521.218548,-0.005,-0.021,1.03,-2.769,1.877,-0.328,-515.286,95.141,23.116
1753271521.3514812,-0.005,-0.02,1.032,-2.808,1.923,-0.313,-513.652,97.138,21.19
1753271521.484073,-0.007,-0.021,1.03,-2.769,1.945,-0.298,-513.289,95.323,21.19
1753271521.6134174,-0.006,-0.022,1.029,-2.731,2.014,-0.267,-514.378,99.317,22.241
1753271521.740372,-0.003,-0.02,1.031,-2.747,1.991,-0.359,-511.292,101.677,23.467
1753271521.8644145,-0.005,-0.02,1.029,-2.701,1.9,-0.351,-510.929,96.593,20.314
1753271521.988566,-0.006,-0.021,1.03,-2.739,2.007,-0.298,-514.015,96.775,20.84
1753271522.1142325,-0.006,-0.022,1.031,-2.762,1.984,-0.359,-513.107,97.683,18.213
1753271522.2377942,-0.006,-0.022,1.03,-2.67,1.961,-0.229,-514.378,96.049,22.941
1753271522.3538854,-0.006,-0.021,1.032,-2.724,1.968,-0.32,-513.107,96.23,21.365
1753271522.4730306,-0.003,-0.022,1.033,-2.769,1.938,-0.351,-512.2,96.049,22.241
1753271522.5898187,-0.006,-0.022,1.032,-2.739,1.877,-0.343,-511.837,96.412,20.84
1753271522.7077196,-0.006,-0.02,1.031,-2.747,2.029,-0.183,-514.923,98.409,20.314
1753271522.8279903,-0.006,-0.023,1.032,-2.724,1.999,-0.412,-515.105,95.323,23.642
1753271522.9461617,-0.005,-0.021,1.029,-2.663,1.961,-0.275,-514.56,98.046,20.665
1753271523.0633583,-0.005,-0.021,1.029,-2.739,1.93,-0.328,-513.652,97.138,22.241
1753271523.1809695,-0.005,-0.02,1.03,-2.747,1.976,-0.259,-514.015,94.233,21.19
1753271523.2996645,-0.004,-0.019,1.033,-2.754,1.884,-0.328,-514.015,97.138,21.891
1753271523.4215252,-0.005,-0.018,1.032,-2.708,1.984,-0.29,-510.747,96.412,20.139
1753271523.5413141,-0.005,-0.018,1.029,-2.708,1.961,-0.313,-513.289,96.775,22.941
1753271523.663094,-0.003,-0.021,1.029,-2.678,1.991,-0.389,-512.563,97.138,20.84
1753271523.783451,-0.006,-0.021,1.03,-2.586,1.945,-0.259,-513.107,95.504,20.665
1753271523.9040308,-0.006,-0.022,1.03,-2.67,1.968,-0.29,-513.834,96.957,20.665
1753271524.0240917,-0.004,-0.022,1.03,-2.792,2.022,-0.305,-515.468,96.412,22.241
1753271524.160665,-0.005,-0.021,1.029,-2.754,1.9,-0.328,-513.652,96.775,21.54
1753271524.2976625,-0.006,-0.021,1.033,-2.67,2.014,-0.229,-514.197,95.504,21.365
1753271524.4180324,-0.005,-0.021,1.03,-2.701,1.938,-0.305,-512.744,97.32,21.715
1753271524.5412326,-0.005,-0.02,1.03,-2.693,1.915,-0.336,-513.834,95.504,18.913
1753271524.6662407,-0.005,-0.021,1.031,-2.724,1.938,-0.214,-512.2,96.412,22.241
1753271524.7974632,-0.005,-0.02,1.032,-2.632,2.014,-0.389,-510.566,98.046,21.365
1753271524.924316,-0.006,-0.021,1.031,-2.739,2.022,-0.29,-512.744,98.046,19.614
1753271525.0543647,-0.003,-0.021,1.032,-2.708,2.007,-0.298,-511.837,97.501,21.19
1753271525.1774065,-0.007,-0.021,1.031,-2.724,1.923,-0.237,-516.194,98.228,19.789
1753271525.3038168,-0.004,-0.022,1.03,-2.769,2.007,-0.282,-511.837,96.412,21.54
1753271525.4276562,-0.005,-0.022,1.026,-2.831,1.915,-0.259,-512.018,97.683,21.015
1753271525.5480404,-0.006,-0.02,1.027,-2.708,1.999,-0.366,-513.471,96.957,21.365
1753271525.66481,-0.005,-0.019,1.028,-2.739,1.884,-0.237,-513.107,98.046,22.066
1753271525.7804554,-0.005,-0.02,1.03,-2.716,1.9,-0.443,-513.107,96.593,22.416
1753271525.8996024,-0.007,-0.02,1.035,-2.708,1.877,-0.305,-514.015,97.501,20.139
1753271526.0179,-0.007,-0.02,1.029,-2.823,1.923,-0.336,-511.292,96.23,21.365
1753271526.1346097,-0.005,-0.021,1.03,-2.655,1.968,-0.366,-509.295,96.775,21.19
1753271526.2508,-0.006,-0.02,1.028,-2.785,2.014,-0.229,-511.11,95.323,21.54
1753271526.3669777,-0.004,-0.019,1.026,-2.762,1.884,-0.252,0,0,0
1753271526.4874604,-0.006,-0.022,1.031,-2.754,1.892,-0.343,-514.015,94.233,22.591
1753271526.6125417,-0.004,-0.021,1.028,-2.701,1.892,-0.305,-511.655,96.23,20.314
1753271526.7317996,-0.006,-0.02,1.027,-2.769,1.93,-0.29,-515.468,95.686,21.19
1753271526.8459594,-0.007,-0.021,1.032,-2.792,1.991,-0.29,-511.655,96.593,21.715
1753271526.9598165,-0.005,-0.019,1.035,-2.762,1.945,-0.351,-513.652,93.507,22.591
1753271527.0752559,-0.004,-0.023,1.031,-2.754,1.884,-0.351,-513.107,97.32,20.665
1753271527.1900403,-0.004,-0.021,1.027,-2.747,1.976,-0.336,-513.834,96.957,21.365
1753271527.3051476,-0.006,-0.021,1.03,-2.686,1.892,-0.298,-513.107,96.23,22.066
1753271527.4237359,-0.006,-0.021,1.028,-2.739,1.984,-0.305,-512.926,97.138,20.84
1753271527.5428708,-0.004,-0.021,1.034,-2.708,1.999,-0.305,-512.018,94.778,21.015
1753271527.660347,-0.006,-0.022,1.03,-2.731,1.945,-0.298,-514.56,95.141,19.964
1753271527.7807295,-0.006,-0.02,1.029,-2.678,1.862,-0.343,-516.557,96.775,22.941
1753271527.9136913,-0.005,-0.02,1.031,-2.777,1.877,-0.298,-512.2,97.501,23.291
1753271528.0639713,-0.004,-0.02,1.03,-2.701,1.923,-0.282,-512.744,98.772,21.015
1753271528.1912508,-0.004,-0.023,1.032,-2.701,1.93,-0.29,-511.837,96.412,20.84
1753271528.3159485,-0.003,-0.02,1.028,-2.831,1.961,-0.359,-513.834,96.593,19.264
1753271528.4400678,-0.006,-0.021,1.028,-2.724,1.991,-0.313,-515.286,95.867,21.015
1753271528.5633345,-0.006,-0.021,1.032,-2.731,2.014,-0.336,-513.471,96.957,22.066
1753271528.6876676,-0.005,-0.022,1.028,-2.739,2.083,-0.237,-512.381,96.23,20.665
1753271528.8377376,-0.006,-0.019,1.027,-2.739,1.9,-0.298,-513.107,97.683,21.365
1753271528.9719467,-0.005,-0.021,1.031,-2.747,1.884,-0.267,-512.018,98.046,19.964
1753271529.104909,-0.005,-0.021,1.03,-2.724,1.877,-0.305,-513.652,95.323,22.241
1753271529.230867,-0.006,-0.021,1.029,-2.693,1.892,-0.336,-510.747,95.686,18.738
1753271529.3609996,-0.003,-0.019,1.027,-2.724,1.953,-0.336,-512.2,96.775,23.291
1753271529.4870262,-0.007,-0.021,1.029,-2.708,1.945,-0.374,-512.563,96.775,22.241
1753271529.6137335,-0.006,-0.021,1.027,-2.754,1.892,-0.29,-512.2,95.323,20.139
1753271529.737246,-0.004,-0.021,1.028,-2.686,1.93,-0.29,-514.742,96.775,20.49
1753271529.8668177,-0.005,-0.019,1.028,-2.693,1.945,-0.282,-512.926,97.864,21.891
1753271529.98984,-0.006,-0.022,1.028,-2.823,1.915,-0.298,-513.471,95.867,20.314
1753271530.1124926,-0.006,-0.021,1.029,-2.701,1.892,-0.366,-514.197,94.778,22.416
1753271530.2352266,-0.003,-0.023,1.03,-2.739,1.945,-0.389,-513.834,95.504,22.766
1753271530.3581445,-0.005,-0.02,1.033,-2.754,1.991,-0.336,-513.289,97.864,23.992
1753271530.4804606,-0.005,-0.02,1.029,-2.777,1.923,-0.366,-513.107,97.683,21.015
1753271530.6075034,-0.003,-0.02,1.031,-2.708,1.968,-0.229,-512.2,94.233,22.941
1753271530.7294025,-0.004,-0.019,1.03,-2.678,1.915,-0.237,-514.742,96.049,20.84
1753271530.8545144,-0.004,-0.023,1.031,-2.716,1.907,-0.267,-516.194,98.954,22.591
1753271530.980872,-0.004,-0.02,1.029,-2.769,1.923,-0.336,-513.652,97.138,22.241
1753271531.1258872,-0.004,-0.021,1.03,-2.686,1.915,-0.275,-513.107,98.409,19.614
1753271531.2516258,-0.006,-0.018,1.027,-2.739,1.938,-0.259,-514.378,94.596,20.49
1753271531.3771079,-0.005,-0.022,1.034,-2.716,1.877,-0.298,-512.563,95.686,21.19
1753271531.5020907,-0.004,-0.021,1.028,-2.708,2.022,-0.32,-514.742,94.959,20.84
1753271531.6260529,-0.008,-0.021,1.029,-2.64,1.976,-0.313,-514.015,96.775,20.84
1753271531.7514567,-0.005,-0.021,1.031,-2.785,1.915,-0.32,-514.015,96.775,21.891
1753271531.8841836,-0.005,-0.02,1.03,-2.785,1.892,-0.343,-511.655,96.957,22.416
1753271532.0109153,-0.006,-0.02,1.033,-2.739,1.93,-0.32,-513.107,96.957,20.314
1753271532.1388495,-0.006,-0.021,1.032,-2.67,1.907,-0.32,-514.923,95.504,21.715
1753271532.2625768,-0.006,-0.02,1.035,-2.8,1.938,-0.336,-513.471,95.867,19.264
1753271532.386202,-0.004,-0.02,1.031,-2.747,1.976,-0.298,-513.289,96.412,22.941
1753271532.5105743,-0.007,-0.022,1.03,-2.785,1.854,-0.244,-513.289,96.775,22.241
1753271532.6310384,-0.005,-0.02,1.031,-2.792,1.968,-0.336,-512.563,96.775,22.591
1753271532.7553928,-0.007,-0.022,1.028,-2.785,1.938,-0.183,-513.471,95.141,20.314
1753271532.878414,-0.007,-0.024,1.031,-2.708,1.968,-0.282,0,0,0
1753271533.0012414,-0.006,-0.022,1.029,-2.724,1.953,-0.313,-513.289,97.138,20.139
1753271533.1264896,-0.006,-0.021,1.027,-2.724,1.816,-0.275,-512.563,96.412,21.891
1753271533.2498817,-0.007,-0.022,1.027,-2.693,1.945,-0.359,-513.834,97.683,22.766
1753271533.3714657,-0.005,-0.023,1.032,-2.8,1.93,-0.259,-513.652,97.138,22.941
1753271533.4933875,-0.008,-0.022,1.03,-2.663,1.945,-0.328,-514.197,96.957,21.715
1753271533.613292,-0.006,-0.02,1.031,-2.693,1.945,-0.404,-512.563,96.775,21.19
1753271533.7363653,-0.006,-0.02,1.035,-2.777,1.953,-0.259,-514.742,96.049,21.19
1753271533.8626275,-0.006,-0.022,1.028,-2.686,1.991,-0.259,-513.289,95.686,20.139
1753271533.9854248,-0.006,-0.021,1.031,-2.693,1.907,-0.359,-512.381,96.23,21.015
1753271534.1052225,-0.005,-0.021,1.027,-2.686,1.93,-0.313,-513.834,97.32,22.416
1753271534.226484,-0.007,-0.023,1.029,-2.701,1.892,-0.313,-512.926,95.686,20.84
1753271534.3513343,-0.005,-0.022,1.029,-2.663,1.991,-0.252,-513.289,96.049,21.891
1753271534.4840848,-0.007,-0.022,1.031,-2.678,1.915,-0.221,-513.834,95.867,19.964
1753271534.6084907,-0.005,-0.021,1.029,-2.724,1.968,-0.351,-511.837,95.323,21.19
1753271534.7332873,-0.004,-0.02,1.028,-2.708,1.923,-0.42,-513.652,94.959,22.241
1753271534.8587341,-0.007,-0.019,1.03,-2.739,1.953,-0.282,-513.107,96.593,21.365
1753271534.986795,-0.006,-0.019,1.03,-2.724,1.953,-0.389,-512.563,96.775,21.54
1753271535.11519,-0.007,-0.02,1.031,-2.731,1.938,-0.313,-515.286,97.32,19.264
1753271535.2416494,-0.004,-0.022,1.027,-2.769,1.892,-0.366,-514.56,94.778,20.665
1753271535.3709087,-0.007,-0.019,1.031,-2.693,1.991,-0.45,-513.834,95.867,21.365
1753271535.5022795,-0.005,-0.021,1.027,-2.663,1.961,-0.328,-512.926,98.591,20.49
1753271535.6271265,-0.005,-0.022,1.031,-2.785,1.999,-0.412,-513.652,96.775,21.19
1753271535.7608466,-0.005,-0.021,1.031,-2.785,1.854,-0.275,-511.11,96.049,21.54
1753271535.8903785,-0.006,-0.022,1.034,-2.67,1.984,-0.282,-514.742,95.686,22.591
1753271536.0236,-0.003,-0.02,1.03,-2.785,1.953,-0.29,-513.471,96.593,20.665
1753271536.1584516,-0.007,-0.02,1.032,-2.655,1.93,-0.381,-515.831,96.412,20.49
1753271536.2901266,-0.004,-0.022,1.032,-2.739,1.938,-0.32,-513.107,95.141,21.365
1753271536.4228876,-0.006,-0.019,1.031,-2.708,1.953,-0.343,-514.923,95.141,19.264
1753271536.5547493,-0.006,-0.021,1.026,-2.655,1.923,-0.336,-513.834,96.23,22.066
1753271536.6854568,-0.006,-0.021,1.033,-2.678,1.968,-0.336,-515.286,96.593,21.715
1753271536.814786,-0.007,-0.022,1.031,-2.747,1.953,-0.328,-512.744,97.683,21.365
1753271536.9443681,-0.005,-0.02,1.029,-2.693,1.984,-0.397,-511.837,96.049,20.139
1753271537.0665276,-0.006,-0.021,1.03,-2.739,1.945,-0.328,-512.381,96.957,19.614
1753271537.1982358,-0.006,-0.02,1.028,-2.777,1.984,-0.366,-514.742,96.775,22.591
1753271537.3306246,-0.007,-0.02,1.031,-2.716,2.022,-0.32,-513.834,95.141,23.116
1753271537.4601374,-0.005,-0.022,1.031,-2.762,1.9,-0.305,-514.015,96.775,19.789
1753271537.5999496,-0.005,-0.022,1.028,-2.777,1.984,-0.336,-514.015,95.323,21.54
1753271537.7365785,-0.005,-0.019,1.031,-2.731,1.968,-0.32,-512.563,95.323,20.49
1753271537.8732853,-0.005,-0.021,1.032,-2.777,1.892,-0.237,-512.926,96.412,24.342
1753271538.0173657,-0.005,-0.02,1.031,-2.678,2.037,-0.32,-511.473,97.138,21.54
1753271538.1501575,-0.007,-0.021,1.033,-2.769,1.984,-0.313,-512.2,95.686,22.241
1753271538.2781289,-0.006,-0.022,1.026,-2.716,1.915,-0.381,-510.929,98.409,21.715
1753271538.403636,-0.006,-0.021,1.032,-2.67,1.923,-0.259,-513.834,95.504,22.066
1753271538.5415032,-0.005,-0.022,1.031,-2.747,1.984,-0.305,-512.563,95.686,20.49
1753271538.670282,-0.005,-0.023,1.031,-2.693,1.915,-0.366,-514.197,95.141,23.116
1753271538.7989576,-0.003,-0.02,1.03,-2.769,1.892,-0.328,-513.471,97.683,20.314
1753271538.924371,-0.008,-0.02,1.03,-2.777,1.976,-0.328,-512.926,97.138,19.439
1753271539.05175,-0.004,-0.022,1.029,-2.747,1.961,-0.29,-512.744,95.141,22.416
1753271539.1778612,-0.005,-0.019,1.034,-2.678,1.953,-0.328,-511.473,97.864,21.19
1753271539.3233914,-0.005,-0.022,1.032,-2.815,2.075,-0.366,-514.197,96.23,20.314
1753271539.4788892,-0.005,-0.021,1.031,-2.792,1.907,-0.313,-513.471,97.32,21.015
1753271539.6136029,-0.004,-0.021,1.029,-2.747,1.953,-0.343,-512.381,95.867,22.416
1753271539.7404542,-0.005,-0.02,1.027,-2.739,1.945,-0.275,-513.289,95.686,22.941
1753271539.8623614,-0.006,-0.021,1.029,-2.754,1.915,-0.305,-516.194,96.775,22.941
1753271539.9901824,-0.005,-0.017,1.031,-2.701,1.923,-0.282,-514.742,97.864,21.19
1753271540.1194744,-0.006,-0.02,1.029,-2.747,1.907,-0.313,-512.563,95.686,22.591
1753271540.2465823,-0.004,-0.02,1.029,-2.769,1.991,-0.336,-513.107,98.409,21.715
1753271540.3722181,-0.006,-0.02,1.029,-2.647,1.93,-0.32,-512.018,96.23,23.467
1753271540.498808,-0.005,-0.021,1.027,-2.716,2.052,-0.32,-514.378,97.138,22.941
1753271540.6236982,-0.006,-0.019,1.027,-2.731,1.907,-0.313,-512.744,97.32,21.015
1753271540.7543647,-0.005,-0.019,1.03,-2.716,1.884,-0.359,-512.2,94.233,20.84
1753271540.8971562,-0.004,-0.02,1.032,-2.686,1.923,-0.282,-510.747,94.959,22.591
1753271541.0416913,-0.006,-0.022,1.028,-2.747,1.907,-0.313,-512.381,99.135,24.868
1753271541.1720467,-0.008,-0.02,1.032,-2.792,1.923,-0.244,-515.286,97.32,21.715
1753271541.2973778,-0.003,-0.022,1.029,-2.747,1.961,-0.29,-512.018,95.141,22.066
1753271541.423715,-0.004,-0.02,1.032,-2.625,1.984,-0.351,-515.468,96.412,20.84
1753271541.5504293,-0.006,-0.022,1.031,-2.769,1.93,-0.351,-511.292,95.867,18.563
1753271541.6811278,-0.005,-0.022,1.029,-2.792,1.884,-0.328,-513.471,96.23,22.066
1753271541.8112574,-0.004,-0.021,1.03,-2.739,2.022,-0.29,-514.015,97.138,21.891
1753271541.9411077,-0.005,-0.02,1.028,-2.701,1.923,-0.275,-514.742,97.501,20.84
1753271542.072543,-0.004,-0.022,1.031,-2.747,1.945,-0.328,-514.742,95.323,22.241
1753271542.2014573,-0.005,-0.02,1.03,-2.617,1.976,-0.252,-512.563,94.959,20.49
1753271542.3305235,-0.005,-0.02,1.03,-2.693,1.953,-0.359,-514.56,95.504,21.365
1753271542.459969,-0.003,-0.02,1.03,-2.678,1.915,-0.29,-513.834,97.32,20.665
1753271542.5908139,-0.005,-0.021,1.028,-2.777,2.007,-0.32,-514.923,96.593,22.766
1753271542.7128675,-0.007,-0.02,1.029,-2.647,1.839,-0.267,-514.197,97.32,19.614
1753271542.8388147,-0.007,-0.021,1.031,-2.67,1.945,-0.359,-513.652,96.775,20.139
1753271542.964621,-0.006,-0.021,1.029,-2.708,1.9,-0.252,-512.744,95.504,20.665
1753271543.0925612,-0.005,-0.021,1.028,-2.625,2.007,-0.29,-513.834,97.32,22.416
1753271543.2188962,-0.006,-0.02,1.03,-2.724,1.892,-0.267,-512.744,96.593,20.665
1753271543.3450623,-0.006,-0.021,1.03,-2.777,1.923,-0.29,-513.289,96.775,20.84
1753271543.4701786,-0.003,-0.02,1.027,-2.716,1.854,-0.32,-512.2,95.323,19.439
1753271543.596519,-0.005,-0.02,1.029,-2.716,1.816,-0.336,-513.289,97.864,19.789
1753271543.7298112,-0.005,-0.019,1.027,-2.716,1.938,-0.343,-514.197,98.046,21.365
1753271543.8610885,-0.005,-0.021,1.031,-2.769,2.037,-0.305,-512.2,98.228,21.891
1753271543.993088,-0.006,-0.021,1.028,-2.762,1.877,-0.282,-513.289,96.775,22.241
1753271544.1250749,-0.004,-0.022,1.031,-2.693,1.961,-0.328,-514.197,95.504,23.467
1753271544.2554176,-0.004,-0.022,1.031,-2.754,1.961,-0.32,-514.015,96.412,22.591
1753271544.3850431,-0.005,-0.022,1.032,-2.708,2.037,-0.275,-513.652,96.775,21.19
1753271544.515878,-0.005,-0.018,1.027,-2.785,2.014,-0.259,-513.289,97.138,20.49
1753271544.6462128,-0.004,-0.021,1.031,-2.769,1.846,-0.305,-514.378,97.864,20.139
1753271544.773812,-0.003,-0.021,1.035,-2.678,1.93,-0.351,-514.56,95.141,21.015
1753271544.9099383,-0.006,-0.021,1.031,-2.769,1.892,-0.389,-513.471,98.046,24.868
1753271545.038951,-0.005,-0.02,1.03,-2.701,2.022,-0.313,-513.471,96.957,23.116
1753271545.1644747,-0.005,-0.021,1.034,-2.655,1.961,-0.229,-514.197,97.32,20.314
1753271545.291047,-0.008,-0.021,1.029,-2.754,1.907,-0.305,-514.015,98.591,20.49
1753271545.4162428,-0.006,-0.02,1.028,-2.747,1.984,-0.351,-513.107,97.683,22.416
1753271545.542708,-0.006,-0.019,1.032,-2.724,1.976,-0.305,-513.107,96.957,23.467
1753271545.6746097,-0.007,-0.02,1.032,-2.716,2.075,-0.29,-513.107,97.32,21.715
1753271545.7999873,-0.005,-0.022,1.03,-2.655,1.976,-0.351,-512.744,98.046,21.715
1753271545.9333062,-0.006,-0.02,1.033,-2.762,1.9,-0.366,-513.289,98.954,22.241
1753271546.0588353,-0.005,-0.02,1.028,-2.693,1.938,-0.29,-512.2,95.686,20.84
1753271546.1888084,-0.006,-0.021,1.029,-2.724,1.976,-0.313,-513.652,95.686,20.139
1753271546.321228,-0.006,-0.021,1.032,-2.747,1.892,-0.359,-511.473,95.686,18.038
1753271546.4552703,-0.007,-0.022,1.029,-2.762,1.877,-0.366,-513.107,97.32,22.416
1753271546.5904357,-0.004,-0.022,1.028,-2.716,1.968,-0.343,-509.839,96.957,20.314
1753271546.7236738,-0.003,-0.02,1.03,-2.67,1.915,-0.381,-514.197,97.32,20.665
1753271546.855296,-0.005,-0.023,1.03,-2.754,1.9,-0.29,-514.015,97.864,19.089
1753271546.9856453,-0.005,-0.019,1.032,-2.655,2.045,-0.32,-514.923,96.957,22.066
1753271547.1151927,-0.006,-0.022,1.029,-2.815,1.968,-0.275,-513.652,95.686,21.54
1753271547.2475393,-0.005,-0.02,1.028,-2.762,1.93,-0.252,-516.739,96.593,22.416
1753271547.3751004,-0.004,-0.02,1.03,-2.663,1.862,-0.267,-514.197,96.593,20.665
1753271547.4992192,-0.006,-0.021,1.029,-2.754,1.999,-0.29,-513.834,95.867,22.066
1753271547.622713,-0.006,-0.019,1.031,-2.754,1.892,-0.328,-513.471,97.683,21.015
1753271547.7445095,-0.006,-0.019,1.029,-2.693,1.846,-0.443,-511.837,97.501,19.089
1753271547.8651333,-0.006,-0.021,1.029,-2.724,2.022,-0.305,-512.744,93.325,20.314
1753271547.9882243,-0.007,-0.02,1.031,-2.754,1.999,-0.343,-512.744,95.504,21.365
1753271548.1113586,-0.007,-0.019,1.029,-2.686,1.968,-0.305,-513.652,97.138,22.241
1753271548.2341013,-0.007,-0.021,1.03,-2.693,1.816,-0.282,-514.378,95.323,20.84
1753271548.366033,-0.005,-0.021,1.028,-2.678,1.938,-0.381,-513.289,97.501,19.789
1753271548.4901218,-0.006,-0.02,1.03,-2.686,1.915,-0.359,-513.471,96.23,22.066
1753271548.613744,-0.005,-0.02,1.028,-2.762,1.907,-0.32,-513.289,95.686,20.84
1753271548.740484,-0.004,-0.022,1.032,-2.678,1.961,-0.282,-513.471,96.957,20.665
1753271548.8733883,-0.005,-0.021,1.03,-2.747,1.945,-0.343,-512.926,95.686,22.591
1753271549.013032,-0.005,-0.022,1.027,-2.769,1.869,-0.298,-512.2,95.323,20.139
1753271549.1470277,-0.006,-0.021,1.03,-2.861,1.884,-0.412,-513.289,95.686,22.241
1753271549.2821732,-0.006,-0.021,1.033,-2.754,2.029,-0.351,-512.563,95.686,19.089
1753271549.4227812,-0.005,-0.021,1.027,-2.716,1.999,-0.366,-513.471,96.957,22.766
1753271549.5582936,-0.004,-0.021,1.029,-2.762,1.945,-0.237,-513.834,95.504,21.715
1753271549.6821797,-0.006,-0.02,1.029,-2.792,1.907,-0.221,-511.11,96.775,21.891
1753271549.8086433,-0.006,-0.021,1.031,-2.663,1.923,-0.343,-513.652,95.686,21.19
1753271549.9524243,-0.005,-0.02,1.032,-2.739,2.022,-0.275,-514.015,96.049,20.49
1753271550.0836644,-0.007,-0.022,1.03,-2.708,1.915,-0.313,-512.018,95.867,20.665
1753271550.2078772,-0.006,-0.02,1.03,-2.785,1.93,-0.267,-514.197,95.867,22.416
1753271550.3326645,-0.007,-0.022,1.03,-2.693,1.938,-0.32,-514.197,97.683,22.416
1753271550.455035,-0.005,-0.023,1.031,-2.739,1.938,-0.275,-511.473,98.591,24.342
1753271550.5750346,-0.006,-0.02,1.029,-2.762,1.93,-0.374,-511.655,97.683,22.416
1753271550.697564,-0.005,-0.02,1.032,-2.769,1.953,-0.305,-512.926,97.501,21.54
1753271550.8194149,-0.005,-0.018,1.031,-2.731,1.907,-0.221,-512.926,96.412,21.19
1753271550.9415896,-0.008,-0.022,1.031,-2.663,1.9,-0.328,-512.744,94.052,22.066
1753271551.0639443,-0.005,-0.02,1.031,-2.67,2.029,-0.343,-513.652,98.954,21.19
1753271551.1866388,-0.005,-0.022,1.028,-2.853,1.945,-0.259,-513.652,95.323,20.84
1753271551.3108315,-0.006,-0.02,1.031,-2.708,1.984,-0.252,-514.378,96.412,20.139
1753271551.4322581,-0.005,-0.02,1.029,-2.869,1.984,-0.275,-512.2,97.864,20.84
1753271551.5544224,-0.003,-0.02,1.039,-2.838,2.037,-0.389,-514.378,94.233,22.241
1753271551.6772153,-0.006,-0.02,1.027,-2.823,1.984,-0.305,-514.197,97.683,20.665
1753271551.8011482,-0.004,-0.021,1.028,-2.701,1.945,-0.298,-513.652,96.412,19.439
1753271551.923612,-0.008,-0.021,1.031,-2.686,1.984,-0.282,-511.655,96.23,18.913
1753271552.0445895,-0.006,-0.021,1.031,-2.701,1.976,-0.343,-514.923,96.593,22.416
1753271552.1652195,-0.006,-0.021,1.026,-2.716,2.014,-0.237,-514.197,95.141,22.416
1753271552.287264,-0.007,-0.021,1.031,-2.876,1.945,-0.359,-514.197,95.141,22.766
1753271552.40962,-0.002,-0.021,1.03,-2.762,2.007,-0.214,-513.652,95.323,21.891
1753271552.5297673,-0.005,-0.02,1.032,-2.769,1.976,-0.313,-515.286,95.504,20.665
1753271552.6504524,-0.005,-0.02,1.032,-2.762,1.991,-0.198,-512.926,96.775,20.84
1753271552.770995,-0.005,-0.023,1.028,-2.8,1.923,-0.351,0,0,0
1753271552.8934653,-0.006,-0.02,1.032,-2.8,1.938,-0.389,-513.834,97.683,22.066
1753271553.0154936,-0.005,-0.022,1.032,-2.716,1.93,-0.328,-513.834,98.046,21.365
1753271553.1580012,-0.005,-0.02,1.031,-2.739,1.923,-0.29,-514.742,96.775,21.54
1753271553.30679,-0.007,-0.02,1.032,-2.739,1.93,-0.359,-513.652,94.959,22.241
1753271553.441417,-0.003,-0.022,1.031,-2.693,1.93,-0.359,-512.926,97.501,21.19
1753271553.565945,-0.005,-0.02,1.031,-2.747,1.968,-0.351,-512.744,97.683,21.715
1753271553.691389,-0.007,-0.022,1.032,-2.708,1.9,-0.267,-514.378,96.412,19.789
1753271553.8170905,-0.007,-0.02,1.031,-2.647,1.961,-0.351,-513.471,96.23,22.416
1753271553.9428244,-0.005,-0.022,1.029,-2.693,2.029,-0.29,-512.563,94.959,19.439
1753271554.0643666,-0.004,-0.021,1.029,-2.686,1.9,-0.381,-514.378,93.507,21.54
1753271554.1875677,-0.005,-0.022,1.03,-2.716,2.007,-0.359,-514.378,96.049,20.49
1753271554.3121068,-0.006,-0.019,1.032,-2.754,1.968,-0.313,-512.563,97.138,20.84
1753271554.433433,-0.003,-0.021,1.03,-2.785,1.953,-0.32,-514.923,96.23,20.314
1753271554.5532057,-0.007,-0.02,1.032,-2.769,1.968,-0.32,-512.2,97.138,18.738
1753271554.6736722,-0.006,-0.02,1.029,-2.785,1.961,-0.343,-514.56,96.593,21.015
1753271554.7936642,-0.007,-0.021,1.033,-2.701,1.869,-0.32,-514.015,96.049,21.891
1753271554.9140277,-0.004,-0.019,1.03,-2.762,1.854,-0.336,-510.202,96.957,22.416
1753271555.0343518,-0.006,-0.019,1.03,-2.655,1.877,-0.32,-514.197,96.957,22.416
1753271555.1547432,-0.005,-0.02,1.031,-2.602,1.945,-0.305,-515.286,96.593,22.766
1753271555.2795157,-0.004,-0.023,1.029,-2.701,1.991,-0.328,-513.471,95.504,20.665
1753271555.4004467,-0.003,-0.022,1.029,-2.716,1.945,-0.275,0,0,0
1753271555.5210612,-0.005,-0.021,1.029,-2.769,2.014,-0.328,-512.381,95.867,22.416
1753271555.6431303,-0.005,-0.022,1.03,-2.647,1.999,-0.313,-512.563,94.959,19.439
1753271555.7643025,-0.005,-0.019,1.029,-2.747,1.945,-0.336,-512.2,95.686,19.439
1753271555.8865583,-0.006,-0.021,1.029,-2.617,1.976,-0.298,-515.286,95.141,23.116
1753271556.0089784,-0.006,-0.022,1.029,-2.739,1.9,-0.29,-512.563,97.138,21.19
1753271556.1335647,-0.005,-0.021,1.027,-2.701,1.869,-0.298,-513.652,97.501,21.891
1753271556.2552557,-0.005,-0.022,1.03,-2.762,1.923,-0.313,-511.655,96.23,19.614
1753271556.37698,-0.005,-0.018,1.03,-2.792,1.9,-0.275,-513.289,95.686,21.19
1753271556.4997647,-0.006,-0.021,1.028,-2.747,1.938,-0.305,-513.107,96.957,22.766
1753271556.6214683,-0.005,-0.021,1.033,-2.686,1.877,-0.32,-513.471,96.957,20.665
1753271556.743126,-0.005,-0.02,1.028,-2.792,1.938,-0.336,-512.381,95.504,21.015
1753271556.8633761,-0.005,-0.021,1.029,-2.647,1.953,-0.282,-512.926,94.959,22.941
1753271556.983303,-0.005,-0.02,1.028,-2.731,1.968,-0.237,-511.11,96.775,20.84
1753271557.1035593,-0.004,-0.019,1.028,-2.731,1.945,-0.381,-512.018,97.32,22.066
1753271557.2236567,-0.004,-0.018,1.029,-2.754,1.961,-0.359,-512.563,95.686,21.891
1753271557.3438804,-0.005,-0.019,1.034,-2.678,1.999,-0.259,-513.471,97.683,20.665
1753271557.4642768,-0.004,-0.02,1.03,-2.663,1.976,-0.343,-512.381,97.683,21.365
1753271557.5838428,-0.004,-0.02,1.031,-2.701,1.938,-0.275,-515.468,96.775,21.54
1753271557.7050529,-0.007,-0.017,1.028,-2.731,1.953,-0.351,-509.476,95.141,22.416
1753271557.8243446,-0.005,-0.021,1.031,-2.701,1.915,-0.32,-515.286,95.504,19.614
1753271557.9470277,-0.005,-0.02,1.029,-2.617,1.915,-0.267,-512.018,95.504,21.365
1753271558.0701673,-0.005,-0.021,1.03,-2.716,1.968,-0.328,-515.831,96.775,22.241
1753271558.1930034,-0.006,-0.022,1.031,-2.731,1.93,-0.267,-513.289,95.323,21.891
1753271558.3150966,-0.006,-0.022,1.028,-2.754,1.968,-0.381,-513.652,96.412,20.139
1753271558.437959,-0.004,-0.019,1.029,-2.739,2.029,-0.29,-510.747,97.138,22.591
1753271558.5606272,-0.006,-0.021,1.032,-2.663,1.877,-0.191,-513.834,96.593,20.665
1753271558.684266,-0.005,-0.021,1.031,-2.724,1.945,-0.267,-512.381,96.23,22.416
1753271558.8253233,-0.007,-0.022,1.035,-2.67,2.007,-0.282,-512.381,94.778,20.665
1753271558.9643164,-0.004,-0.019,1.027,-2.754,1.984,-0.267,-512.563,96.412,20.84
1753271559.0972424,-0.006,-0.021,1.027,-2.8,1.945,-0.374,-513.289,96.049,20.49
1753271559.2259893,-0.005,-0.02,1.029,-2.708,1.915,-0.313,-513.289,96.412,21.54
1753271559.35266,-0.005,-0.02,1.028,-2.769,1.938,-0.359,-512.744,97.683,21.365
1753271559.4796453,-0.005,-0.022,1.026,-2.777,1.999,-0.32,-513.107,96.957,22.766
1753271559.6073966,-0.006,-0.02,1.03,-2.678,1.938,-0.351,-514.197,95.504,20.665
1753271559.7329328,-0.005,-0.022,1.03,-2.762,1.884,-0.282,-515.649,95.867,20.314
1753271559.8588777,-0.005,-0.019,1.027,-2.701,1.984,-0.267,-511.837,96.049,19.789
1753271559.9827018,-0.005,-0.021,1.03,-2.724,1.846,-0.183,-511.655,96.23,24.868
1753271560.1068127,-0.005,-0.024,1.029,-2.747,1.953,-0.229,-510.202,96.957,21.015
1753271560.2264087,-0.005,-0.02,1.031,-2.754,1.945,-0.397,-513.652,96.049,22.591
1753271560.3476927,-0.006,-0.021,1.031,-2.617,2.037,-0.359,-513.471,95.141,21.015
1753271560.4741654,-0.006,-0.022,1.03,-2.762,1.938,-0.328,-513.471,98.772,19.614
1753271560.5997229,-0.005,-0.018,1.032,-2.609,2.007,-0.328,-512.2,98.228,22.591
1753271560.7265851,-0.005,-0.02,1.029,-2.724,1.884,-0.313,-512.926,96.049,21.54
1753271560.8523476,-0.006,-0.02,1.036,-2.678,1.991,-0.252,-513.289,97.864,21.19
1753271560.9855666,-0.007,-0.021,1.031,-2.693,1.877,-0.259,-511.11,95.686,20.84
1753271561.1149187,-0.007,-0.022,1.032,-2.731,1.854,-0.252,-514.015,95.686,20.49
1753271561.245538,-0.006,-0.019,1.026,-2.769,1.9,-0.29,-512.563,97.501,20.139
1753271561.3868468,-0.004,-0.02,1.027,-2.724,1.93,-0.328,-512.381,96.957,21.015
1753271561.5143104,-0.006,-0.02,1.031,-2.739,1.915,-0.244,-513.834,99.135,21.365
1753271561.639592,-0.006,-0.018,1.028,-2.701,1.915,-0.343,-514.378,97.864,18.738
1753271561.7626278,-0.005,-0.024,1.03,-2.663,1.915,-0.328,-512.381,97.32,23.116
1753271561.8869557,-0.005,-0.018,1.031,-2.762,1.961,-0.282,-514.923,96.957,20.665
1753271562.0052922,-0.006,-0.021,1.03,-2.64,1.968,-0.404,-513.652,97.138,21.54
1753271562.1282818,-0.005,-0.019,1.028,-2.701,1.9,-0.282,-513.652,97.138,20.49
1753271562.265245,-0.004,-0.022,1.03,-2.808,2.007,-0.282,-514.015,94.596,21.54
1753271562.4046628,-0.006,-0.02,1.032,-2.769,1.9,-0.29,-514.197,98.046,21.715
1753271562.5369108,-0.006,-0.019,1.029,-2.769,1.854,-0.298,-513.652,97.138,22.241
1753271562.6605992,-0.007,-0.02,1.028,-2.747,2.098,-0.275,-514.015,97.138,21.19
1753271562.7667031,-0.006,-0.022,1.032,-2.701,2.045,-0.282,0,0,0
1753271562.8829575,-0.004,-0.02,1.032,-2.64,1.923,-0.252,-511.837,96.412,21.19
1753271563.0130758,-0.005,-0.022,1.027,-2.724,2.052,-0.374,-511.837,93.87,20.49
